"Time (s)","Acceleration x (m/s^2)","Acceleration y (m/s^2)","Acceleration z (m/s^2)"
1.627939800E-2,3.112462163E-2,9.744400978E0,9.672574997E-1
3.233141400E-2,6.224924326E-2,9.770736694E0,9.576807022E-1
4.835291400E-2,-5.267243832E-2,9.880870819E0,9.935936928E-1
6.437441200E-2,-8.858546615E-2,9.876082420E0,1.003170490E0
8.039591200E-2,-9.337386489E-2,9.871294022E0,9.959878922E-1
9.641741000E-2,-1.125274822E-1,9.835380554E0,1.034295082E0
1.123473580E-1,-1.292868853E-1,9.818621635E0,1.039083481E0
1.283688580E-1,-1.819593310E-1,9.806650162E0,9.959878922E-1
1.443903560E-1,-1.125274822E-1,9.852140427E0,1.039083481E0
1.604118560E-1,-7.422025502E-2,9.787496567E0,9.983820915E-1
1.764333550E-1,-7.900865376E-2,9.801861763E0,1.000776291E0
1.924853710E-1,-6.224924326E-2,9.835380554E0,1.043871999E0
2.085068700E-1,-8.619125932E-2,9.832986832E0,1.065419793E0
2.245283690E-1,-1.077390760E-1,9.897629738E0,1.041477680E0
2.405498680E-1,-1.029506698E-1,9.811438560E0,1.024718285E0
2.566018850E-1,-9.816227108E-2,9.768342972E0,1.074996591E0
2.726233830E-1,-5.506663769E-2,9.725247383E0,1.096544385E0
2.886448830E-1,-3.830722719E-2,9.713275909E0,1.101332784E0
3.046663810E-1,6.224924326E-2,9.478644371E0,1.082179189E0
3.206878810E-1,-1.053448766E-1,9.797073364E0,1.067813993E0
3.367398970E-1,-2.944868207E-1,1.024239445E1,8.690952063E-1
3.527613960E-1,-1.580173075E-1,1.017535686E1,1.046266198E0
3.687828950E-1,-3.830722719E-2,9.782708168E0,1.012747288E0
3.848043950E-1,-2.154781483E-2,9.667786598E0,1.029506683E0
4.008258930E-1,-1.915361360E-2,9.694122314E0,1.019929886E0
4.168473930E-1,-8.379705995E-2,9.777919769E0,1.029506683E0
4.328994090E-1,-8.379705995E-2,9.859322548E0,1.019929886E0
4.489209070E-1,-1.915361360E-2,9.844957352E0,1.019929886E0
4.649424070E-1,3.351882473E-2,9.801861763E0,1.046266198E0
4.809639060E-1,4.788403213E-2,9.794678688E0,1.015141487E0
4.969854050E-1,2.633621916E-2,9.789890289E0,9.816226959E-1
5.130069040E-1,-9.576806799E-3,9.878476143E0,9.672574997E-1
5.290284030E-1,-4.548983276E-2,9.849745750E0,1.031900883E0
5.450499020E-1,-9.816227108E-2,9.806650162E0,1.074996591E0
5.610714010E-1,-1.125274822E-1,9.777919769E0,1.041477680E0
5.770929000E-1,-7.661445439E-2,9.809044838E0,1.031900883E0
5.930228480E-1,-3.351882473E-2,9.804255486E0,1.043871999E0
6.090748640E-1,-1.125274822E-1,9.852140427E0,1.053448796E0
6.250963640E-1,-1.532289088E-1,9.787496567E0,1.077390790E0
6.411178620E-1,-1.939303428E-1,9.806650162E0,1.067813993E0
6.571393620E-1,-2.082955539E-1,9.842563629E0,1.074996591E0
6.731608600E-1,-2.082955539E-1,9.842563629E0,1.106121182E0
6.891823600E-1,-1.077390760E-1,9.816226959E0,1.086967587E0
7.052038580E-1,-3.351882473E-2,9.797073364E0,1.079784989E0
7.212253580E-1,-2.873042040E-2,9.825803757E0,9.888052940E-1
7.372468560E-1,-6.943184882E-2,9.809044838E0,1.019929886E0
7.532683560E-1,-1.747767180E-1,9.811438560E0,1.091755986E0
7.693203720E-1,-2.035071403E-1,9.758766174E0,1.103726983E0
7.853418710E-1,-1.987187415E-1,9.744400978E0,1.084573388E0
8.013633700E-1,-1.484405100E-1,9.806650162E0,1.046266198E0
8.173848700E-1,-1.244984865E-1,9.844957352E0,1.024718285E0
8.334368860E-1,-1.197100878E-1,9.892841339E0,1.053448796E0
8.494583850E-1,-6.703764945E-2,9.840168953E0,1.027112484E0
8.654798840E-1,4.788403399E-3,9.830592155E0,1.029506683E0
8.815013830E-1,1.053448766E-1,9.825803757E0,9.959878922E-1
8.975228820E-1,7.900865376E-2,9.847352028E0,1.022324085E0
9.135443810E-1,1.101332754E-1,9.830592155E0,9.768342972E-1
9.295658800E-1,1.819593310E-1,9.821015358E0,1.058237195E0
9.455873790E-1,1.651999205E-1,9.732429504E0,1.091755986E0
9.616088780E-1,6.943184882E-2,9.777919769E0,1.122880578E0
9.776608950E-1,1.197100803E-2,9.768342972E0,1.161187768E0
9.936823930E-1,-1.053448766E-1,9.813833237E0,1.079784989E0
1.009703893E0,-2.489969730E-1,9.828198433E0,1.120486379E0
1.025725391E0,-3.854664862E-1,9.876082420E0,1.139639974E0
1.041746891E0,-4.309563041E-1,9.873687744E0,1.110909581E0
1.057768389E0,-4.668693244E-1,9.940725327E0,1.127668977E0
1.073789889E0,-4.094084799E-1,9.873687744E0,1.101332784E0
1.089841905E0,-4.141969085E-1,9.785101891E0,1.115697980E0
1.105863405E0,-3.998316824E-1,9.691728592E0,1.132457376E0
1.121884903E0,-4.453215301E-1,9.730035782E0,1.094150186E0
1.137906403E0,-4.118026793E-1,9.804255486E0,1.024718285E0
1.153958419E0,-3.471592367E-1,9.789890289E0,1.043871999E0
1.169979918E0,-2.609679997E-1,9.710882187E0,1.048660398E0
1.186001417E0,-1.556231081E-1,9.792284966E0,9.792284966E-1
1.202022916E0,-2.011129409E-1,9.921571732E0,9.145850539E-1
1.218044415E0,-2.154781520E-1,9.945513725E0,9.768342972E-1
1.234096431E0,-1.747767180E-1,9.885659218E0,9.409212470E-1
1.250117930E0,-1.005564705E-1,9.816226959E0,9.241618514E-1
1.266139429E0,-2.394201700E-3,9.856928825E0,8.978256583E-1
1.282160928E0,5.267243832E-2,9.849745750E0,8.475474119E-1
1.298182428E0,6.703764945E-2,9.842563629E0,8.786720037E-1
1.314203926E0,6.464344263E-2,9.794678688E0,8.954314590E-1
1.330225426E0,9.576806426E-2,9.734824181E0,8.667010069E-1
1.346246924E0,7.422025502E-2,9.821015358E0,8.978256583E-1
1.362268424E0,0.000000000E0,9.861717224E0,9.385270476E-1
1.378320440E0,-1.197100803E-2,9.878476143E0,9.145850539E-1
1.394341940E0,9.576806799E-3,9.873687744E0,9.265560508E-1
1.410363438E0,1.675941236E-2,9.888052940E0,9.457096457E-1
1.426384938E0,1.484405100E-1,9.832986832E0,9.552865028E-1
1.442406436E0,2.130839527E-1,9.773131371E0,9.481038451E-1
1.458427936E0,3.256114423E-1,9.789890289E0,9.217676520E-1
1.474479952E0,3.591302633E-1,9.871294022E0,8.906430602E-1
1.490501451E0,3.303998411E-1,9.818621635E0,9.169792533E-1
1.506522950E0,3.327940404E-1,9.792284966E0,9.361328483E-1
1.522544449E0,3.160346150E-1,9.797073364E0,9.840168953E-1
1.538565948E0,2.585737705E-1,9.811438560E0,9.983820915E-1
1.554587447E0,1.867477298E-1,9.818621635E0,9.169792533E-1
1.570608946E0,6.703764945E-2,9.847352028E0,9.265560508E-1
1.586630445E0,-4.548983276E-2,9.837775230E0,9.648633003E-1
1.602651944E0,-4.070143029E-2,9.844957352E0,9.864110947E-1
1.618673443E0,-5.746084079E-2,9.847352028E0,9.864110947E-1
1.634725459E0,-7.900865376E-2,9.852140427E0,1.067813993E0
1.650746959E0,-1.292868853E-1,9.883264542E0,9.911994934E-1
1.666768457E0,-1.316810995E-1,9.864110947E0,9.457096457E-1
1.682789957E0,-5.985504389E-2,9.904812813E0,9.504981041E-1
1.698811455E0,-4.788403399E-3,9.868899345E0,9.744400978E-1
1.714832955E0,4.309562966E-2,9.801861763E0,9.792284966E-1
1.730854455E0,1.101332754E-1,9.751583099E0,9.768342972E-1
1.746906471E0,1.077390760E-1,9.806650162E0,9.648633003E-1
1.762927969E0,1.867477298E-1,9.828198433E0,1.029506683E0
1.778949469E0,2.513911724E-1,9.849745750E0,9.145850539E-1
1.794970967E0,3.351882398E-1,9.919178009E0,8.427590132E-1
1.810992467E0,2.801215947E-1,9.916783333E0,8.954314590E-1
1.827013966E0,2.753331959E-1,9.821015358E0,8.595184088E-1
1.843035465E0,2.418143749E-1,9.756371498E0,8.834604025E-1
1.859087481E0,1.221042871E-1,9.801861763E0,8.906430602E-1
1.875108980E0,6.703764945E-2,9.818621635E0,8.930372596E-1
1.891130479E0,9.337386489E-2,9.873687744E0,8.499416113E-1
1.907151978E0,3.112462163E-2,9.868899345E0,8.906430602E-1
1.923173477E0,1.197100803E-2,9.842563629E0,8.954314590E-1
1.939194976E0,2.154781483E-2,9.821015358E0,9.265560508E-1
1.955216476E0,-3.591302410E-2,9.818621635E0,8.475474119E-1
1.971268492E0,-1.077390760E-1,9.849745750E0,8.236053586E-1
1.987289991E0,-1.125274822E-1,9.856928825E0,8.523358107E-1
2.003311490E0,-8.140286058E-2,9.830592155E0,8.595184088E-1
2.019332989E0,-9.097966552E-2,9.785101891E0,8.714894056E-1
2.035354488E0,-1.268926859E-1,9.797073364E0,8.667010069E-1
2.051375988E0,-2.537853718E-1,9.828198433E0,9.409212470E-1
2.067428004E0,-2.226607651E-1,9.818621635E0,9.504981041E-1
2.083449502E0,-1.556231081E-1,9.868899345E0,9.313444495E-1
2.099471002E0,-1.675941236E-2,9.880870819E0,9.026140571E-1
2.115492500E0,1.053448766E-1,9.864110947E0,9.050082564E-1
2.131514000E0,1.532289088E-1,9.878476143E0,8.619126081E-1
2.147535498E0,1.651999205E-1,9.890447617E0,9.169792533E-1
2.163587515E0,1.364694983E-1,9.854534149E0,9.050082564E-1
2.179609014E0,2.154781520E-1,9.768342972E0,9.792284966E-1
2.195630513E0,2.705447972E-1,9.809044838E0,9.624691010E-1
2.211652012E0,3.375824392E-1,9.809044838E0,9.337386489E-1
2.227673511E0,3.758896589E-1,9.861717224E0,8.667010069E-1
2.243695010E0,4.237737060E-1,9.940725327E0,8.188169599E-1
2.259716509E0,4.357447028E-1,9.943120003E0,8.403648138E-1
2.275768526E0,4.189853072E-1,9.861717224E0,8.212111592E-1
2.291790025E0,3.902548850E-1,9.749189377E0,8.714894056E-1
2.307811524E0,2.968810201E-1,9.756371498E0,8.858546019E-1
2.323833023E0,1.460463107E-1,9.830592155E0,8.714894056E-1
2.339854522E0,-4.788403399E-3,9.797073364E0,8.930372596E-1
2.355876021E0,-3.591302410E-2,9.837775230E0,9.169792533E-1
2.371928037E0,5.027823523E-2,9.876082420E0,8.978256583E-1
2.387949537E0,1.173158810E-1,9.900024414E0,8.810662031E-1
2.403971035E0,1.484405100E-1,9.868899345E0,8.978256583E-1
2.419992535E0,1.340752989E-1,9.830592155E0,8.810662031E-1
2.436014033E0,3.351882473E-2,9.804255486E0,8.738836050E-1
2.452035533E0,-5.027823523E-2,9.811438560E0,8.379706144E-1
2.468057031E0,-8.140286058E-2,9.852140427E0,8.547300100E-1
2.484078531E0,-1.197100803E-2,9.844957352E0,8.403648138E-1
2.500100030E0,8.858546615E-2,9.868899345E0,8.403648138E-1
2.516121529E0,9.576806426E-2,9.861717224E0,8.643068075E-1
2.532143028E0,6.464344263E-2,9.830592155E0,8.571242094E-1
2.548195044E0,8.858546615E-2,9.876082420E0,8.212111592E-1
2.564216543E0,1.843535304E-1,9.957485199E0,7.685387731E-1
2.580238042E0,2.250549644E-1,9.921571732E0,7.517793179E-1
2.596259542E0,3.064578176E-1,9.823410034E0,8.810662031E-1
2.612281041E0,3.591302633E-1,9.732429504E0,8.643068075E-1
2.628302540E0,2.992752194E-1,9.730035782E0,9.600749016E-1
2.644324039E0,2.513911724E-1,9.799467087E0,9.768342972E-1
2.660376055E0,2.801215947E-1,9.852140427E0,9.409212470E-1
2.676397554E0,4.405331016E-1,9.921571732E0,9.265560508E-1
2.692419054E0,4.381389022E-1,9.904812813E0,8.331822157E-1
2.708440552E0,3.208230138E-1,9.914389610E0,7.972691655E-1
2.724462052E0,2.106897533E-1,9.919178009E0,8.164227605E-1
2.740483550E0,6.464344263E-2,9.866505623E0,8.571242094E-1
2.756535566E0,-8.140286058E-2,9.794678688E0,9.768342972E-1
2.772557066E0,-1.699883193E-1,9.739612579E0,1.029506683E0
2.788578564E0,-1.053448766E-1,9.706093788E0,1.029506683E0
2.804600064E0,-8.379705995E-2,9.785101891E0,9.265560508E-1
2.820621563E0,-6.464344263E-2,9.876082420E0,8.595184088E-1
2.836643062E0,-1.005564705E-1,9.902418137E0,9.074024558E-1
2.852664561E0,-1.891419291E-1,9.799467087E0,9.169792533E-1
2.868716577E0,-3.016694188E-1,9.670180321E0,1.003170490E0
2.884738076E0,-3.543418646E-1,9.770736694E0,1.041477680E0
2.900759576E0,-2.681505978E-1,9.921571732E0,9.840168953E-1
2.916781075E0,-1.436520964E-1,9.976638794E0,9.074024558E-1
2.932802574E0,2.154781483E-2,9.923966408E0,8.236053586E-1
2.948854590E0,1.292868853E-1,9.876082420E0,8.283938169E-1
2.964876089E0,9.816227108E-2,9.835380554E0,8.810662031E-1
2.980897588E0,7.900865376E-2,9.794678688E0,8.571242094E-1
2.996949604E0,1.628057212E-1,9.797073364E0,8.403648138E-1
3.012971103E0,2.777273953E-1,9.792284966E0,8.595184088E-1
3.028992603E0,3.471592367E-1,9.825803757E0,8.140285611E-1
3.045014101E0,4.740519226E-1,9.832986832E0,8.020575643E-1
3.061035601E0,5.386953950E-1,9.835380554E0,6.943184733E-1
3.077087617E0,6.224924326E-1,9.832986832E0,6.536170840E-1
3.093109115E0,6.631938815E-1,9.935936928E0,7.398083210E-1
3.109130615E0,6.584054828E-1,9.866505623E0,7.350199223E-1
3.125152114E0,5.458779931E-1,9.756371498E0,7.661445141E-1
3.141204131E0,3.711012602E-1,9.720458984E0,8.978256583E-1
3.157225629E0,1.628057212E-1,9.758766174E0,9.672574997E-1
3.173247129E0,-1.197100878E-1,9.873687744E0,9.528923035E-1
3.189268627E0,-3.615244627E-1,9.945513725E0,9.193734527E-1
3.205320644E0,-6.129156351E-1,9.902418137E0,9.959878922E-1
3.221342143E0,-7.326257229E-1,9.821015358E0,1.055842996E0
3.237363642E0,-5.506663918E-1,9.832986832E0,1.115697980E0
3.253385141E0,-7.445967197E-1,9.904812813E0,1.192312479E0
3.269406640E0,-7.134721279E-1,9.689333916E0,1.240196466E0
3.285428139E0,-3.974374831E-1,9.710882187E0,1.115697980E0
3.301480155E0,-3.423708379E-1,9.797073364E0,1.144428372E0
3.317501654E0,-9.337386489E-2,9.816226959E0,1.086967587E0
3.333523154E0,8.140286058E-2,9.866505623E0,1.005564690E0
3.349575170E0,1.651999205E-1,9.821015358E0,9.050082564E-1
3.365596669E0,3.112462163E-1,9.871294022E0,8.092401624E-1
3.381618168E0,3.974374831E-1,9.895236015E0,8.164227605E-1
3.397639667E0,4.381389022E-1,9.890447617E0,8.523358107E-1
3.413691684E0,4.764461517E-1,9.856928825E0,8.547300100E-1
3.429713182E0,4.333505034E-1,9.840168953E0,8.499416113E-1
3.445734682E0,3.830722570E-1,9.792284966E0,8.451532125E-1
3.461756180E0,3.830722570E-1,9.825803757E0,8.738836050E-1
3.477808196E0,3.447650373E-1,9.873687744E0,8.451532125E-1
3.493829696E0,2.992752194E-1,9.876082420E0,8.188169599E-1
3.509851195E0,2.609679997E-1,9.849745750E0,8.116343617E-1
3.525872694E0,1.699883193E-1,9.823410034E0,8.499416113E-1
3.541894193E0,3.591302410E-2,9.794678688E0,9.050082564E-1
3.557915692E0,4.070143029E-2,9.789890289E0,9.552865028E-1
3.573967708E0,3.351882473E-2,9.804255486E0,9.911994934E-1
3.589989207E0,4.070143029E-2,9.811438560E0,9.911994934E-1
3.606010706E0,-2.394201607E-2,9.780313492E0,9.816226959E-1
3.622032206E0,-2.394201700E-3,9.818621635E0,1.029506683E0
3.638053705E0,3.112462163E-2,9.907206535E0,1.063025594E0
3.654075204E0,3.591302410E-2,9.950302124E0,1.079784989E0
3.670127220E0,1.005564705E-1,9.895236015E0,9.911994934E-1
3.686148719E0,1.316810995E-1,9.828198433E0,9.648633003E-1
3.702170218E0,1.053448766E-1,9.753977776E0,9.959878922E-1
3.718191717E0,7.900865376E-2,9.746794701E0,1.012747288E0
3.734213217E0,1.005564705E-1,9.775525093E0,1.029506683E0
3.750234715E0,5.746084079E-2,9.782708168E0,1.010353088E0
3.766256215E0,5.506663769E-2,9.840168953E0,9.696516991E-1
3.782308231E0,1.125274822E-1,9.840168953E0,9.504981041E-1
3.798329729E0,1.292868853E-1,9.878476143E0,9.409212470E-1
3.814351229E0,1.771709323E-1,9.921571732E0,9.696516991E-1
3.830372728E0,2.274491638E-1,9.900024414E0,9.744400978E-1
3.846394227E0,3.327940404E-1,9.856928825E0,9.121908545E-1
3.862415726E0,4.070142806E-1,9.864110947E0,8.547300100E-1
3.878467742E0,4.213795066E-1,9.866505623E0,8.379706144E-1
3.894489241E0,3.926490843E-1,9.852140427E0,8.643068075E-1
3.910510741E0,3.519476354E-1,9.849745750E0,9.074024558E-1
3.926532239E0,3.998316824E-1,9.825803757E0,9.193734527E-1
3.942553739E0,5.051765442E-1,9.854534149E0,8.595184088E-1
3.958575238E0,5.506663918E-1,9.928754807E0,8.283938169E-1
3.974596737E0,5.315127969E-1,9.923966408E0,8.259995580E-1
3.990618236E0,4.692635238E-1,9.842563629E0,8.690952063E-1
4.006670252E0,4.070142806E-1,9.746794701E0,9.050082564E-1
4.022691751E0,3.136404157E-1,9.756371498E0,1.003170490E0
4.038713250E0,2.537853718E-1,9.794678688E0,9.792284966E-1
4.054734750E0,2.537853718E-1,9.902418137E0,9.433154464E-1
4.070756248E0,2.561795712E-1,9.914389610E0,9.600749016E-1
4.086808264E0,2.322375625E-1,9.842563629E0,9.145850539E-1
4.102829764E0,1.675941199E-1,9.701305389E0,9.385270476E-1
4.118851262E0,9.576806426E-2,9.698910713E0,1.043871999E0
4.134903278E0,7.182604820E-2,9.811438560E0,1.036689281E0
4.150924778E0,1.101332754E-1,9.940725327E0,1.010353088E0
4.166946278E0,9.097966552E-2,1.001973438E1,9.935936928E-1
4.182967776E0,-3.830722719E-2,9.892841339E0,9.528923035E-1
4.199019792E0,-6.224924326E-2,9.749189377E0,9.744400978E-1
4.215041292E0,7.182605099E-3,9.713275909E0,1.051054597E0
4.231062790E0,2.394201607E-2,9.811438560E0,1.043871999E0
4.247084290E0,5.506663769E-2,9.871294022E0,9.624691010E-1
4.263136306E0,6.224924326E-2,9.880870819E0,9.672574997E-1
4.279157805E0,9.576806799E-3,9.809044838E0,9.935936928E-1
4.295179304E0,-8.379705995E-2,9.691728592E0,1.046266198E0
4.311200803E0,-5.267243832E-2,9.720458984E0,1.046266198E0
4.327252819E0,-2.394201700E-3,9.818621635E0,1.017535686E0
4.343274319E0,3.112462163E-2,9.892841339E0,9.696516991E-1
4.359295817E0,-1.675941236E-2,9.883264542E0,9.552865028E-1
4.375317317E0,-6.943184882E-2,9.761159897E0,9.385270476E-1
4.391338815E0,-9.097966552E-2,9.686940193E0,9.552865028E-1
4.407360315E0,-8.140286058E-2,9.746794701E0,9.959878922E-1
4.423381813E0,-6.464344263E-2,9.811438560E0,1.017535686E0
4.439433830E0,-5.506663769E-2,9.825803757E0,1.036689281E0
4.455455329E0,-3.830722719E-2,9.801861763E0,1.046266198E0
4.471476829E0,-7.422025502E-2,9.797073364E0,1.043871999E0
4.487498327E0,-6.464344263E-2,9.821015358E0,1.031900883E0
4.503550343E0,-1.915361360E-2,9.880870819E0,1.027112484E0
4.519571843E0,3.591302410E-2,9.859322548E0,1.051054597E0
4.535593341E0,5.746084079E-2,9.806650162E0,1.077390790E0
4.551614841E0,1.029506698E-1,9.777919769E0,1.094150186E0
4.567636340E0,1.484405100E-1,9.806650162E0,1.103726983E0
4.583657839E0,1.795651317E-1,9.797073364E0,1.048660398E0
4.599679338E0,1.843535304E-1,9.825803757E0,1.029506683E0
4.615700837E0,8.140286058E-2,9.885659218E0,1.036689281E0
4.631722336E0,2.873042040E-2,9.873687744E0,1.024718285E0
4.647743835E0,1.077390760E-1,9.825803757E0,9.624691010E-1
4.663765334E0,1.580173075E-1,9.842563629E0,9.097966552E-1
4.679817350E0,1.292868853E-1,9.854534149E0,9.552865028E-1
4.695838850E0,1.101332754E-1,9.880870819E0,9.768342972E-1
4.711860349E0,5.506663769E-2,9.892841339E0,1.003170490E0
4.727881848E0,2.394201607E-2,9.859322548E0,9.983820915E-1
4.743903347E0,2.394201700E-3,9.773131371E0,9.888052940E-1
4.759924846E0,-6.464344263E-2,9.782708168E0,1.015141487E0
4.775946345E0,-1.244984865E-1,9.825803757E0,1.027112484E0
4.791967844E0,-1.628057212E-1,9.885659218E0,1.000776291E0
4.807989344E0,-1.077390760E-1,9.902418137E0,9.864110947E-1
4.824041360E0,-1.005564705E-1,9.885659218E0,9.744400978E-1
4.840062858E0,-1.316810995E-1,9.907206535E0,1.029506683E0
4.856084358E0,-1.436520964E-1,9.923966408E0,1.091755986E0
4.872105856E0,-1.029506698E-1,9.880870819E0,1.072602391E0
4.888127356E0,-5.506663769E-2,9.871294022E0,1.118092179E0
4.904148855E0,2.154781483E-2,9.892841339E0,1.130063176E0
4.920170354E0,1.436521020E-2,9.844957352E0,1.137245774E0
4.936222370E0,1.197100803E-2,9.777919769E0,1.082179189E0
4.952243869E0,3.112462163E-2,9.744400978E0,1.077390790E0
4.968265368E0,2.873042040E-2,9.830592155E0,1.170764685E0
4.984286867E0,6.703764945E-2,9.849745750E0,1.199495077E0
5.000338884E0,8.619125932E-2,9.785101891E0,1.165976286E0
5.016360383E0,1.268926859E-1,9.722852707E0,1.161187768E0
5.032381882E0,1.077390760E-1,9.643844604E0,1.161187768E0
5.048403381E0,1.197100878E-1,9.586383820E0,1.161187768E0
5.064424880E0,1.101332754E-1,9.610325813E0,1.173158884E0
5.080476896E0,4.309562966E-2,9.674968719E0,1.194706678E0
5.096498395E0,-2.154781483E-2,9.701305389E0,1.175553083E0
5.112519895E0,-3.351882473E-2,9.753977776E0,1.158793569E0
5.128541393E0,2.394201700E-3,9.813833237E0,1.144428372E0
5.144562893E0,9.576806426E-2,9.859322548E0,1.151610970E0
5.160584391E0,1.819593310E-1,9.878476143E0,1.139639974E0
5.176636407E0,1.604115069E-1,9.902418137E0,1.168370485E0
5.192657907E0,1.005564705E-1,9.868899345E0,1.225831270E0
5.208679406E0,6.703764945E-2,9.773131371E0,1.175553083E0
5.224700905E0,1.125274822E-1,9.744400978E0,1.187524080E0
5.240722404E0,1.556231081E-1,9.866505623E0,1.206677675E0
5.256774421E0,6.703764945E-2,9.859322548E0,1.261744261E0
5.272795919E0,-7.182605099E-3,9.854534149E0,1.242590666E0
5.288817419E0,-2.873042040E-2,9.792284966E0,1.151610970E0
5.304838917E0,-7.900865376E-2,9.859322548E0,1.144428372E0
5.320890934E0,-1.484405100E-1,9.864110947E0,1.201889277E0
5.336912433E0,-9.097966552E-2,9.773131371E0,1.237802267E0
5.352933932E0,0.000000000E0,9.665391922E0,1.283292055E0
5.368955431E0,6.224924326E-2,9.718064308E0,1.259350061E0
5.385007447E0,4.548983276E-2,9.813833237E0,1.204283476E0
5.401028946E0,4.309562966E-2,9.854534149E0,1.292868972E0
5.417050446E0,1.125274822E-1,9.885659218E0,1.209071875E0
5.433071944E0,7.900865376E-2,9.794678688E0,1.082179189E0
5.449093444E0,2.633621916E-2,9.782708168E0,1.194706678E0
5.465145460E0,6.464344263E-2,9.859322548E0,1.491587639E0
5.481166958E0,3.830722719E-2,9.782708168E0,1.132457376E0
5.497188458E0,5.027823523E-2,9.619902611E0,1.072602391E0
5.513209957E0,1.699883193E-1,9.708487511E0,1.137245774E0
5.529231456E0,2.106897533E-1,9.873687744E0,1.175553083E0
5.545283472E0,2.466027737E-1,9.945513725E0,1.170764685E0
5.561304972E0,3.136404157E-1,9.914389610E0,1.177947283E0
5.577326470E0,3.112462163E-1,9.832986832E0,1.154005170E0
5.593347970E0,3.399766386E-1,9.746794701E0,1.199495077E0
5.609369468E0,2.466027737E-1,9.801861763E0,1.312022567E0
5.625390968E0,1.939303428E-1,9.797073364E0,1.254561663E0
5.641442984E0,9.337386489E-2,9.758766174E0,1.228225470E0
5.657464483E0,2.154781483E-2,9.768342972E0,1.230619669E0
5.673485982E0,0.000000000E0,9.751583099E0,1.209071875E0
5.689507481E0,-8.379705995E-2,9.773131371E0,1.290474772E0
5.705528980E0,-1.484405100E-1,9.770736694E0,1.367089152E0
5.721550479E0,-5.027823523E-2,9.749189377E0,1.261744261E0
5.737602495E0,2.633621916E-2,9.753977776E0,1.173158884E0
5.753623995E0,4.070143029E-2,9.883264542E0,1.261744261E0
5.769553943E0,2.154781483E-2,9.868899345E0,1.168370485E0
5.785575441E0,-4.548983276E-2,9.816226959E0,1.139639974E0
5.801596941E0,-8.619125932E-2,9.842563629E0,1.307234168E0
5.817648957E0,-2.394201607E-2,9.895236015E0,1.333570361E0
5.833670455E0,5.267243832E-2,9.746794701E0,1.134851575E0
5.849691955E0,4.788403399E-3,9.742006302E0,1.108515382E0
5.865713454E0,-2.394201700E-3,9.777919769E0,1.144428372E0
5.881765471E0,-1.125274822E-1,9.864110947E0,1.319205165E0
5.897786969E0,-1.292868853E-1,9.825803757E0,1.280897856E0
5.913808469E0,-6.224924326E-2,9.773131371E0,1.244984865E0
5.929829967E0,-1.268926859E-1,9.799467087E0,1.113303781E0
5.945881983E0,-1.795651317E-1,9.821015358E0,1.127668977E0
5.961903483E0,-1.292868853E-1,9.780313492E0,1.199495077E0
5.977924982E0,-5.506663769E-2,9.694122314E0,1.206677675E0
5.993946481E0,-1.675941236E-2,9.703699112E0,1.199495077E0
6.009967980E0,-2.394201700E-3,9.789890289E0,1.106121182E0
6.026019996E0,-1.029506698E-1,9.830592155E0,1.130063176E0
6.042041495E0,-1.244984865E-1,9.837775230E0,1.244984865E0
6.058062994E0,-1.197100878E-1,9.785101891E0,1.194706678E0
6.074084494E0,-1.723825186E-1,9.832986832E0,1.046266198E0
6.090105992E0,-1.915361285E-1,9.880870819E0,1.120486379E0
6.106158008E0,-1.604115069E-1,9.806650162E0,1.156399369E0
6.122179508E0,-1.460463107E-1,9.797073364E0,1.194706678E0
6.138201006E0,-1.867477298E-1,9.780313492E0,1.110909581E0
6.154222506E0,-2.059013397E-1,9.761159897E0,1.134851575E0
6.170244005E0,-2.130839527E-1,9.825803757E0,1.089361787E0
6.186265504E0,-2.226607651E-1,9.816226959E0,1.134851575E0
6.202317520E0,-1.939303428E-1,9.818621635E0,1.302445769E0
6.218339020E0,-1.723825186E-1,9.797073364E0,1.194706678E0
6.234360518E0,-1.915361285E-1,9.737217903E0,1.206677675E0
6.250382018E0,-1.604115069E-1,9.787496567E0,1.371877551E0
6.266403516E0,-2.035071403E-1,9.813833237E0,1.249773264E0
6.282425016E0,-1.939303428E-1,9.878476143E0,1.244984865E0
6.298446515E0,-9.576806426E-2,9.804255486E0,1.154005170E0
6.314468014E0,-1.460463107E-1,9.806650162E0,1.027112484E0
6.330489513E0,-1.843535304E-1,9.821015358E0,1.185129881E0
6.346541529E0,-2.106897533E-1,9.835380554E0,1.163581967E0
6.362563028E0,-1.939303428E-1,9.837775230E0,1.029506683E0
6.378584527E0,-2.418143749E-1,9.907206535E0,1.053448796E0
6.394606027E0,-3.399766386E-1,9.900024414E0,1.063025594E0
6.410627525E0,-3.088520169E-1,9.854534149E0,1.154005170E0
6.426649025E0,-2.777273953E-1,9.832986832E0,1.163581967E0
6.442670523E0,-2.537853718E-1,9.780313492E0,1.244984865E0
6.458722540E0,-2.801215947E-1,9.742006302E0,1.268926859E0
6.474744039E0,-3.758896589E-1,9.658209801E0,1.233013868E0
6.490765538E0,-3.854664862E-1,9.698910713E0,1.165976286E0
6.506787037E0,-3.902548850E-1,9.818621635E0,1.259350061E0
6.522808537E0,-3.878606856E-1,9.871294022E0,1.177947283E0
6.538860553E0,-3.711012602E-1,9.818621635E0,1.146822572E0
6.554882051E0,-2.849099934E-1,9.804255486E0,1.244984865E0
6.570903551E0,-1.747767180E-1,9.727641106E0,1.189918280E0
6.586925049E0,-1.747767180E-1,9.727641106E0,1.197100878E0
6.602977066E0,-2.442085743E-1,9.830592155E0,1.230619669E0
6.618998565E0,-2.059013397E-1,9.840168953E0,1.185129881E0
6.635020064E0,-1.604115069E-1,9.761159897E0,1.173158884E0
6.651041563E0,-1.508347094E-1,9.768342972E0,1.201889277E0
6.667063062E0,-1.795651317E-1,9.758766174E0,1.175553083E0
6.683115078E0,-2.106897533E-1,9.804255486E0,1.182735682E0
6.699136578E0,-2.298433632E-1,9.859322548E0,1.259350061E0
6.715158077E0,-2.035071403E-1,9.856928825E0,1.225831270E0
6.731179576E0,-2.298433632E-1,9.840168953E0,1.230619669E0
6.747231592E0,-2.322375625E-1,9.816226959E0,1.252167463E0
6.763253091E0,-2.298433632E-1,9.811438560E0,1.280897856E0
6.779274590E0,-2.633621991E-1,9.789890289E0,1.259350061E0
6.795326606E0,-3.663128614E-1,9.856928825E0,1.168370485E0
6.811348106E0,-4.237737060E-1,9.746794701E0,1.173158884E0
6.827369604E0,-3.543418646E-1,9.756371498E0,1.199495077E0
6.843391104E0,-3.399766386E-1,9.801861763E0,1.283292055E0
6.859443120E0,-2.609679997E-1,9.782708168E0,1.252167463E0
6.875464618E0,-1.556231081E-1,9.744400978E0,1.187524080E0
6.891486118E0,-8.619125932E-2,9.789890289E0,1.173158884E0
6.907507617E0,-2.633621916E-2,9.830592155E0,1.235408068E0
6.923559634E0,6.943184882E-2,9.792284966E0,1.139639974E0
6.939581132E0,2.394201607E-2,9.801861763E0,1.249773264E0
6.955602632E0,6.464344263E-2,9.809044838E0,1.187524080E0
6.971624130E0,5.506663769E-2,9.785101891E0,1.211466074E0
6.987645630E0,3.112462163E-2,9.849745750E0,1.158793569E0
7.003697646E0,-4.788403399E-3,9.885659218E0,1.137245774E0
7.019719145E0,-3.591302410E-2,9.859322548E0,1.177947283E0
7.035740644E0,-2.154781483E-2,9.785101891E0,1.165976286E0
7.051762143E0,-2.633621916E-2,9.734824181E0,1.132457376E0
7.067783642E0,-9.337386489E-2,9.777919769E0,1.156399369E0
7.083835658E0,-1.484405100E-1,9.799467087E0,1.173158884E0
7.099857157E0,-1.819593310E-1,9.801861763E0,1.170764685E0
7.115878657E0,-1.699883193E-1,9.835380554E0,1.132457376E0
7.131900155E0,-2.106897533E-1,9.859322548E0,1.154005170E0
7.147952171E0,-3.064578176E-1,9.835380554E0,1.091755986E0
7.163973671E0,-3.423708379E-1,9.770736694E0,1.175553083E0
7.179995170E0,-2.418143749E-1,9.775525093E0,1.156399369E0
7.196047187E0,-2.106897533E-1,9.739612579E0,1.120486379E0
7.212068685E0,-2.370259613E-1,9.763554573E0,1.144428372E0
7.228090185E0,-2.609679997E-1,9.818621635E0,1.082179189E0
7.244142201E0,-2.418143749E-1,9.885659218E0,1.089361787E0
7.260163699E0,-2.896983922E-1,9.847352028E0,1.127668977E0
7.276185199E0,-2.729389966E-1,9.720458984E0,1.173158884E0
7.292206697E0,-2.753331959E-1,9.737217903E0,1.122880578E0
7.308258714E0,-3.088520169E-1,9.777919769E0,1.189918280E0
7.324280213E0,-3.303998411E-1,9.825803757E0,1.115697980E0
7.340301712E0,-3.351882398E-1,9.866505623E0,1.163581967E0
7.356323211E0,-2.753331959E-1,9.785101891E0,1.134851575E0
7.372375227E0,-1.915361285E-1,9.765948296E0,1.146822572E0
7.388396727E0,-9.337386489E-2,9.744400978E0,1.079784989E0
7.404418226E0,-9.576806426E-2,9.792284966E0,1.139639974E0
7.420439725E0,-1.651999205E-1,9.801861763E0,1.156399369E0
7.436491741E0,-2.082955539E-1,9.854534149E0,1.127668977E0
7.452513240E0,-1.556231081E-1,9.892841339E0,1.187524080E0
7.468534739E0,-1.723825186E-1,9.883264542E0,1.142034173E0
7.484556238E0,-1.029506698E-1,9.825803757E0,1.036689281E0
7.500577738E0,-1.412578970E-1,9.825803757E0,1.091755986E0
7.516629754E0,-1.173158810E-1,9.773131371E0,1.149216771E0
7.532651252E0,-1.244984865E-1,9.727641106E0,1.127668977E0
7.548672752E0,-1.173158810E-1,9.775525093E0,1.149216771E0
7.564694250E0,-1.628057212E-1,9.823410034E0,1.084573388E0
7.580715750E0,-2.082955539E-1,9.832986832E0,1.101332784E0
7.596767766E0,-2.394201756E-1,9.861717224E0,1.134851575E0
7.612789265E0,-2.729389966E-1,9.873687744E0,1.173158884E0
7.628810764E0,-3.088520169E-1,9.847352028E0,1.165976286E0
7.644832264E0,-3.399766386E-1,9.789890289E0,1.139639974E0
7.660853762E0,-3.208230138E-1,9.794678688E0,1.187524080E0
7.676875262E0,-2.657563984E-1,9.794678688E0,1.223437071E0
7.692896760E0,-1.316810995E-1,9.797073364E0,1.268926859E0
7.708918260E0,-2.633621916E-2,9.751583099E0,1.230619669E0
7.724970276E0,-7.182605099E-3,9.801861763E0,1.089361787E0
7.740991775E0,-3.591302410E-2,9.842563629E0,1.113303781E0
7.757013274E0,2.633621916E-2,9.911994934E0,1.187524080E0
7.773034773E0,6.224924326E-2,9.897629738E0,1.168370485E0
7.789056272E0,9.816227108E-2,9.837775230E0,1.091755986E0
7.805108288E0,8.379705995E-2,9.763554573E0,1.161187768E0
7.821129787E0,5.746084079E-2,9.696516991E0,1.084573388E0
7.837151287E0,6.943184882E-2,9.665391922E0,1.113303781E0
7.853172785E0,4.309562966E-2,9.756371498E0,1.065419793E0
7.869224801E0,-4.788403399E-3,9.895236015E0,1.046266198E0
7.885246301E0,-1.149216816E-1,9.864110947E0,1.086967587E0
7.901267800E0,-1.699883193E-1,9.837775230E0,1.101332784E0
7.917319817E0,-1.939303428E-1,9.856928825E0,1.113303781E0
7.933341315E0,-1.340752989E-1,9.837775230E0,1.063025594E0
7.949362815E0,-1.005564705E-1,9.828198433E0,1.106121182E0
7.965384313E0,-1.723825186E-1,9.830592155E0,1.137245774E0
7.981436329E0,-2.274491638E-1,9.787496567E0,1.122880578E0
7.997457829E0,-2.561795712E-1,9.806650162E0,1.194706678E0
8.013479328E0,-2.753331959E-1,9.801861763E0,1.134851575E0
8.029531344E0,-2.011129409E-1,9.782708168E0,1.063025594E0
8.045552843E0,-1.436520964E-1,9.797073364E0,1.089361787E0
8.061574342E0,-1.556231081E-1,9.837775230E0,1.158793569E0
8.077626358E0,-1.029506698E-1,9.830592155E0,1.216254473E0
8.093647857E0,-4.309562966E-2,9.813833237E0,1.156399369E0
8.109669357E0,-1.915361360E-2,9.821015358E0,1.134851575E0
8.125690856E0,-1.675941236E-2,9.770736694E0,1.144428372E0
8.141742872E0,-6.224924326E-2,9.744400978E0,1.151610970E0
8.157764371E0,-8.858546615E-2,9.756371498E0,1.182735682E0
8.173816387E0,-1.005564705E-1,9.816226959E0,1.161187768E0
8.189837886E0,-4.788403213E-2,9.847352028E0,1.185129881E0
8.205859386E0,5.027823523E-2,9.888052940E0,1.254561663E0
8.221880884E0,3.351882473E-2,9.842563629E0,1.189918280E0
8.237902384E0,-9.576806799E-3,9.835380554E0,1.156399369E0
8.253954400E0,-7.661445439E-2,9.785101891E0,1.221042871E0
8.269975898E0,-1.819593310E-1,9.761159897E0,1.223437071E0
8.285997398E0,-2.154781520E-1,9.753977776E0,1.189918280E0
8.302018897E0,-2.274491638E-1,9.832986832E0,1.273715258E0
8.318070914E0,-2.609679997E-1,9.821015358E0,1.261744261E0
8.334092412E0,-2.418143749E-1,9.780313492E0,1.228225470E0
8.350113912E0,-1.915361285E-1,9.801861763E0,1.216254473E0
8.366135410E0,-1.867477298E-1,9.813833237E0,1.197100878E0
8.382156910E0,-2.130839527E-1,9.768342972E0,1.209071875E0
8.398208926E0,-2.035071403E-1,9.804255486E0,1.233013868E0
8.414230425E0,-2.035071403E-1,9.885659218E0,1.273715258E0
8.430251924E0,-2.106897533E-1,9.873687744E0,1.256955862E0
8.446273423E0,-1.316810995E-1,9.753977776E0,1.216254473E0
8.462294922E0,-1.221042871E-1,9.720458984E0,1.216254473E0
8.478316421E0,-1.029506698E-1,9.737217903E0,1.273715258E0
8.494337920E0,-1.747767180E-1,9.751583099E0,1.132457376E0
8.510359419E0,-2.561795712E-1,9.799467087E0,1.182735682E0
8.526380919E0,-2.370259613E-1,9.799467087E0,1.288080573E0
8.542402417E0,-1.795651317E-1,9.792284966E0,1.276109457E0
8.558454433E0,-1.436520964E-1,9.818621635E0,1.252167463E0
8.574475933E0,-1.244984865E-1,9.765948296E0,1.261744261E0
8.590497431E0,-1.173158810E-1,9.770736694E0,1.225831270E0
8.606518931E0,-1.795651317E-1,9.794678688E0,1.211466074E0
8.622540429E0,-1.340752989E-1,9.789890289E0,1.185129881E0
8.638561929E0,-1.173158810E-1,9.785101891E0,1.280897856E0
8.654583429E0,-9.816227108E-2,9.770736694E0,1.237802267E0
8.670604927E0,-1.077390760E-1,9.801861763E0,1.237802267E0
8.686656943E0,-1.508347094E-1,9.830592155E0,1.139639974E0
8.702678443E0,-1.197100878E-1,9.840168953E0,1.199495077E0
8.718699941E0,-1.532289088E-1,9.840168953E0,1.189918280E0
8.734721441E0,-1.867477298E-1,9.852140427E0,1.149216771E0
8.750742940E0,-1.939303428E-1,9.832986832E0,1.108515382E0
8.766794956E0,-2.130839527E-1,9.789890289E0,1.154005170E0
8.782816455E0,-2.298433632E-1,9.806650162E0,1.168370485E0
8.798837954E0,-2.609679997E-1,9.844957352E0,1.127668977E0
8.814859453E0,-2.418143749E-1,9.799467087E0,1.158793569E0
8.830911470E0,-1.747767180E-1,9.753977776E0,1.192312479E0
8.846932968E0,-1.149216816E-1,9.768342972E0,1.137245774E0
8.862954468E0,-8.140286058E-2,9.821015358E0,1.151610970E0
8.878975966E0,-1.101332754E-1,9.837775230E0,1.115697980E0
8.894997466E0,-9.576806426E-2,9.823410034E0,1.108515382E0
8.911018965E0,-7.422025502E-2,9.782708168E0,1.067813993E0
8.927070981E0,-3.351882473E-2,9.811438560E0,1.118092179E0
8.943092480E0,9.576806799E-3,9.830592155E0,1.127668977E0
8.959113980E0,0.000000000E0,9.801861763E0,1.012747288E0
8.975135478E0,-5.027823523E-2,9.840168953E0,1.031900883E0
8.991156978E0,-3.830722719E-2,9.818621635E0,1.051054597E0
9.007208994E0,-2.394201607E-2,9.787496567E0,1.065419793E0
9.023230492E0,-1.197100803E-2,9.777919769E0,1.096544385E0
9.039251992E0,-5.267243832E-2,9.794678688E0,1.051054597E0
9.055273491E0,-9.576806426E-2,9.852140427E0,1.027112484E0
9.071325507E0,-8.858546615E-2,9.866505623E0,1.086967587E0
9.087255455E0,-1.125274822E-1,9.859322548E0,1.108515382E0
9.103276954E0,-1.197100878E-1,9.840168953E0,1.041477680E0
9.119298453E0,-6.703764945E-2,9.787496567E0,1.055842996E0
9.135319952E0,-5.985504389E-2,9.811438560E0,1.077390790E0
9.151371968E0,-1.675941236E-2,9.811438560E0,1.091755986E0
9.167393467E0,-7.661445439E-2,9.763554573E0,1.094150186E0
9.183414967E0,-7.182604820E-2,9.765948296E0,1.134851575E0
9.199466983E0,-9.337386489E-2,9.801861763E0,1.067813993E0
9.215488481E0,-1.005564705E-1,9.837775230E0,1.024718285E0
9.231509981E0,-1.268926859E-1,9.878476143E0,1.110909581E0
9.247439929E0,-1.292868853E-1,9.864110947E0,1.074996591E0
9.263491945E0,-6.224924326E-2,9.825803757E0,1.103726983E0
9.279513443E0,-4.309562966E-2,9.811438560E0,1.158793569E0
9.295534943E0,-8.140286058E-2,9.809044838E0,1.120486379E0
9.311556441E0,-7.422025502E-2,9.789890289E0,1.118092179E0
9.327608458E0,-5.985504389E-2,9.801861763E0,1.146822572E0
9.343629957E0,-1.077390760E-1,9.835380554E0,1.091755986E0
9.359651457E0,-1.197100878E-1,9.828198433E0,1.118092179E0
9.375672955E0,-1.316810995E-1,9.821015358E0,1.082179189E0
9.391694455E0,-1.149216816E-1,9.840168953E0,1.175553083E0
9.407715953E0,-1.268926859E-1,9.799467087E0,1.118092179E0
9.423737453E0,-1.388636976E-1,9.806650162E0,1.096544385E0
9.439789469E0,-1.532289088E-1,9.804255486E0,1.091755986E0
9.455810968E0,-1.364694983E-1,9.818621635E0,1.189918280E0
9.471832467E0,-1.436520964E-1,9.804255486E0,1.175553083E0
9.487853966E0,-1.005564705E-1,9.804255486E0,1.113303781E0
9.503875465E0,-9.576806426E-2,9.804255486E0,1.110909581E0
9.519896964E0,-9.576806426E-2,9.840168953E0,1.086967587E0
9.535948980E0,-1.292868853E-1,9.835380554E0,1.120486379E0
9.551970480E0,-1.436520964E-1,9.792284966E0,1.173158884E0
9.567991978E0,-1.292868853E-1,9.792284966E0,1.132457376E0
9.584013478E0,-1.053448766E-1,9.804255486E0,1.122880578E0
9.600065494E0,-7.900865376E-2,9.835380554E0,1.048660398E0
9.616086993E0,-1.005564705E-1,9.852140427E0,1.067813993E0
9.632108492E0,-1.005564705E-1,9.840168953E0,1.101332784E0
9.648129992E0,-1.149216816E-1,9.777919769E0,1.127668977E0
9.664151490E0,-1.053448766E-1,9.785101891E0,1.084573388E0
9.680172990E0,-9.097966552E-2,9.770736694E0,1.206677675E0
9.696194488E0,-8.619125932E-2,9.770736694E0,1.154005170E0
9.712215988E0,-1.244984865E-1,9.801861763E0,1.115697980E0
9.728145935E0,-1.628057212E-1,9.856928825E0,1.106121182E0
9.744197951E0,-1.484405100E-1,9.844957352E0,1.101332784E0
9.760249968E0,-1.651999205E-1,9.813833237E0,1.106121182E0
9.776271467E0,-1.580173075E-1,9.777919769E0,1.120486379E0
9.792292966E0,-1.460463107E-1,9.787496567E0,1.113303781E0
9.808314465E0,-1.556231081E-1,9.811438560E0,1.074996591E0
9.824335964E0,-1.292868853E-1,9.794678688E0,1.063025594E0
9.840357463E0,-8.858546615E-2,9.818621635E0,1.072602391E0
9.856378962E0,-9.816227108E-2,9.821015358E0,1.070208192E0
9.872400461E0,-1.388636976E-1,9.823410034E0,1.098938584E0
9.888421961E0,-1.173158810E-1,9.825803757E0,1.098938584E0
9.904443459E0,-1.436520964E-1,9.818621635E0,1.039083481E0
9.920495475E0,-1.268926859E-1,9.842563629E0,1.065419793E0
9.936516975E0,-1.412578970E-1,9.804255486E0,1.058237195E0
9.952538473E0,-1.340752989E-1,9.787496567E0,1.070208192E0
9.968559973E0,-1.268926859E-1,9.840168953E0,1.084573388E0
9.984581471E0,-1.484405100E-1,9.835380554E0,1.084573388E0
1.000060297E1,-1.532289088E-1,9.816226959E0,1.091755986E0
1.001662447E1,-1.651999205E-1,9.823410034E0,1.065419793E0
1.003264597E1,-1.388636976E-1,9.840168953E0,1.118092179E0
1.004869798E1,-1.268926859E-1,9.840168953E0,1.101332784E0
1.006471949E1,-1.125274822E-1,9.813833237E0,1.063025594E0
1.008074098E1,-1.532289088E-1,9.806650162E0,1.125274777E0
1.009676248E1,-1.675941199E-1,9.782708168E0,1.120486379E0
1.011278398E1,-1.580173075E-1,9.770736694E0,1.132457376E0
1.012880548E1,-1.268926859E-1,9.777919769E0,1.168370485E0
1.014482698E1,-1.101332754E-1,9.806650162E0,1.115697980E0
1.016087900E1,-1.580173075E-1,9.830592155E0,1.113303781E0
1.017690050E1,-1.771709323E-1,9.840168953E0,1.122880578E0
1.019292199E1,-1.412578970E-1,9.830592155E0,1.113303781E0
1.020894349E1,-1.388636976E-1,9.828198433E0,1.098938584E0
1.022496499E1,-1.053448766E-1,9.823410034E0,1.103726983E0
1.024098649E1,-7.661445439E-2,9.844957352E0,1.072602391E0
1.025703851E1,-2.873042040E-2,9.856928825E0,1.072602391E0
1.027306001E1,-7.182605099E-3,9.821015358E0,1.055842996E0
1.028908151E1,1.436521020E-2,9.801861763E0,9.672574997E-1
1.030510300E1,-4.788403399E-3,9.792284966E0,9.337386489E-1
1.032112450E1,9.576806799E-3,9.792284966E0,9.433154464E-1
1.033714600E1,1.197100803E-2,9.832986832E0,9.504981041E-1
1.035316750E1,2.394201700E-3,9.849745750E0,9.864110947E-1
1.036921952E1,5.506663769E-2,9.856928825E0,9.409212470E-1
1.038524102E1,5.985504389E-2,9.861717224E0,9.409212470E-1
1.040126252E1,-1.436521020E-2,9.818621635E0,9.744400978E-1
1.041728402E1,-2.633621916E-2,9.797073364E0,9.433154464E-1
1.043330552E1,-2.633621916E-2,9.818621635E0,9.792284966E-1
1.044932701E1,-9.576806426E-2,9.844957352E0,9.911994934E-1
1.046534851E1,-1.221042871E-1,9.859322548E0,1.005564690E0
1.048137001E1,-1.029506698E-1,9.825803757E0,1.027112484E0
1.049739151E1,-1.005564705E-1,9.789890289E0,1.086967587E0
1.051341301E1,-1.077390760E-1,9.797073364E0,1.067813993E0
1.052943451E1,-1.556231081E-1,9.825803757E0,1.039083481E0
1.054545601E1,-2.130839527E-1,9.825803757E0,1.072602391E0
1.056150802E1,-1.867477298E-1,9.854534149E0,1.084573388E0
1.057752952E1,-1.316810995E-1,9.847352028E0,1.063025594E0
1.059355102E1,-9.097966552E-2,9.852140427E0,1.046266198E0
1.060957252E1,-1.101332754E-1,9.804255486E0,1.024718285E0
1.062559402E1,-9.097966552E-2,9.799467087E0,1.072602391E0
1.064161552E1,-8.619125932E-2,9.801861763E0,1.084573388E0
1.065763702E1,-3.351882473E-2,9.806650162E0,1.079784989E0
1.067365852E1,-2.394201607E-2,9.821015358E0,1.051054597E0
1.068971054E1,-4.070143029E-2,9.837775230E0,1.041477680E0
1.070573203E1,-6.703764945E-2,9.806650162E0,1.041477680E0
1.072175353E1,-6.703764945E-2,9.813833237E0,1.094150186E0
1.073777503E1,-9.097966552E-2,9.835380554E0,1.079784989E0
1.075379653E1,-8.140286058E-2,9.828198433E0,1.051054597E0
1.076981803E1,-8.140286058E-2,9.832986832E0,1.051054597E0
1.078583953E1,-8.379705995E-2,9.804255486E0,1.065419793E0
1.080186103E1,-7.422025502E-2,9.813833237E0,1.072602391E0
1.081788253E1,-6.703764945E-2,9.847352028E0,1.074996591E0
1.083390403E1,-1.125274822E-1,9.832986832E0,1.058237195E0
1.084992553E1,-1.628057212E-1,9.818621635E0,1.101332784E0
1.086594702E1,-1.556231081E-1,9.818621635E0,1.039083481E0
1.088196852E1,-1.292868853E-1,9.797073364E0,1.067813993E0
1.089799002E1,-1.077390760E-1,9.801861763E0,1.086967587E0
1.091401152E1,-9.097966552E-2,9.823410034E0,1.070208192E0
1.093006354E1,-7.900865376E-2,9.854534149E0,1.091755986E0
1.094608504E1,-7.422025502E-2,9.842563629E0,1.086967587E0
1.096210654E1,-4.070143029E-2,9.806650162E0,1.077390790E0
1.097812803E1,-4.788403213E-2,9.816226959E0,1.074996591E0
1.099414953E1,-8.140286058E-2,9.809044838E0,1.091755986E0
1.101017103E1,-2.394201607E-2,9.801861763E0,1.067813993E0
1.102619253E1,2.154781483E-2,9.825803757E0,1.048660398E0
1.104224455E1,5.027823523E-2,9.813833237E0,1.010353088E0
1.105826605E1,1.197100803E-2,9.837775230E0,1.067813993E0
1.107428755E1,-1.197100803E-2,9.840168953E0,1.089361787E0
1.109030905E1,1.197100803E-2,9.818621635E0,1.065419793E0
1.110633054E1,-2.154781483E-2,9.832986832E0,1.036689281E0
1.112238256E1,-1.436521020E-2,9.809044838E0,1.063025594E0
1.113840406E1,-1.436521020E-2,9.830592155E0,1.051054597E0
1.115442556E1,-9.576806799E-3,9.830592155E0,1.094150186E0
1.117044706E1,0.000000000E0,9.832986832E0,1.106121182E0
1.118646856E1,-3.591302410E-2,9.801861763E0,1.118092179E0
1.120249006E1,-6.464344263E-2,9.797073364E0,1.077390790E0
1.121851156E1,-8.140286058E-2,9.816226959E0,1.096544385E0
1.123453306E1,-5.506663769E-2,9.806650162E0,1.094150186E0
1.125055455E1,1.197100803E-2,9.811438560E0,1.103726983E0
1.126660657E1,4.788403213E-2,9.823410034E0,1.065419793E0
1.128262807E1,3.112462163E-2,9.837775230E0,1.039083481E0
1.129864957E1,-1.915361360E-2,9.844957352E0,1.084573388E0
1.131467107E1,-6.224924326E-2,9.828198433E0,1.072602391E0
1.133069257E1,-3.830722719E-2,9.809044838E0,1.082179189E0
1.134671406E1,4.788403399E-3,9.828198433E0,1.067813993E0
1.136273556E1,2.633621916E-2,9.794678688E0,1.065419793E0
1.137875706E1,2.394201607E-2,9.797073364E0,1.103726983E0
1.139480908E1,-1.436521020E-2,9.792284966E0,1.103726983E0
1.141083058E1,-1.197100803E-2,9.816226959E0,1.058237195E0
1.142688260E1,-2.154781483E-2,9.840168953E0,1.015141487E0
1.144290409E1,-3.351882473E-2,9.861717224E0,1.060631394E0
1.145892559E1,-6.703764945E-2,9.835380554E0,1.094150186E0
1.147494709E1,-8.858546615E-2,9.789890289E0,1.067813993E0
1.149096859E1,-4.309562966E-2,9.792284966E0,1.077390790E0
1.150699009E1,-6.464344263E-2,9.794678688E0,1.089361787E0
1.152304211E1,-1.101332754E-1,9.770736694E0,1.189918280E0
1.153906361E1,-1.316810995E-1,9.780313492E0,1.072602391E0
1.155508510E1,-1.125274822E-1,9.842563629E0,1.103726983E0
1.157110660E1,-1.556231081E-1,9.897629738E0,1.034295082E0
1.158712810E1,-1.628057212E-1,9.871294022E0,1.091755986E0
1.160314960E1,-1.556231081E-1,9.837775230E0,1.094150186E0
1.161917110E1,-1.412578970E-1,9.801861763E0,1.110909581E0
1.163519260E1,-1.268926859E-1,9.789890289E0,1.096544385E0
1.165121410E1,-1.005564705E-1,9.777919769E0,1.065419793E0
1.166723560E1,-7.422025502E-2,9.794678688E0,1.089361787E0
1.168325710E1,-1.244984865E-1,9.847352028E0,1.065419793E0
1.169927860E1,-1.484405100E-1,9.804255486E0,1.063025594E0
1.171530010E1,-1.340752989E-1,9.811438560E0,1.089361787E0
1.173135211E1,-6.943184882E-2,9.847352028E0,1.074996591E0
1.174737361E1,-1.915361360E-2,9.811438560E0,1.077390790E0
1.176339511E1,-2.154781483E-2,9.813833237E0,1.060631394E0
1.177941661E1,-4.788403399E-3,9.837775230E0,1.065419793E0
1.179543811E1,0.000000000E0,9.864110947E0,1.029506683E0
1.181145961E1,-1.675941236E-2,9.823410034E0,1.015141487E0
1.182748111E1,-3.591302410E-2,9.828198433E0,1.060631394E0
1.184350261E1,-3.830722719E-2,9.821015358E0,1.067813993E0
1.185952410E1,-4.070143029E-2,9.835380554E0,1.058237195E0
1.187554560E1,-2.633621916E-2,9.828198433E0,1.058237195E0
1.189156710E1,-2.394201700E-3,9.806650162E0,1.043871999E0
1.190758860E1,-1.436521020E-2,9.782708168E0,1.036689281E0
1.192361010E1,-3.351882473E-2,9.809044838E0,1.015141487E0
1.193963160E1,-3.591302410E-2,9.847352028E0,1.060631394E0
1.195568362E1,-3.830722719E-2,9.868899345E0,1.079784989E0
1.197170512E1,-3.112462163E-2,9.844957352E0,1.041477680E0
1.198772661E1,-2.873042040E-2,9.852140427E0,1.036689281E0
1.200374811E1,-4.548983276E-2,9.797073364E0,1.053448796E0
1.201976961E1,2.394201700E-3,9.785101891E0,1.072602391E0
1.203579111E1,2.633621916E-2,9.835380554E0,1.072602391E0
1.205181261E1,4.788403399E-3,9.844957352E0,1.063025594E0
1.206783411E1,-3.591302410E-2,9.813833237E0,1.067813993E0
1.208385561E1,-3.830722719E-2,9.801861763E0,1.089361787E0
1.209987711E1,-4.070143029E-2,9.789890289E0,1.063025594E0
1.211592912E1,-3.351882473E-2,9.828198433E0,1.048660398E0
1.213195062E1,-5.985504389E-2,9.847352028E0,1.043871999E0
1.214797212E1,-6.464344263E-2,9.847352028E0,1.063025594E0
1.216399362E1,-1.125274822E-1,9.823410034E0,1.094150186E0
1.218001512E1,-8.379705995E-2,9.821015358E0,1.096544385E0
1.219603662E1,-7.182604820E-2,9.806650162E0,1.074996591E0
1.221208864E1,-6.703764945E-2,9.811438560E0,1.022324085E0
1.222811013E1,-4.309562966E-2,9.816226959E0,1.041477680E0
1.224413163E1,-5.506663769E-2,9.825803757E0,1.065419793E0
1.226015313E1,-2.633621916E-2,9.842563629E0,1.031900883E0
1.227617463E1,-2.633621916E-2,9.825803757E0,1.067813993E0
1.229219613E1,-3.591302410E-2,9.828198433E0,1.074996591E0
1.230821763E1,-7.182604820E-2,9.825803757E0,1.067813993E0
1.232423913E1,-9.576806426E-2,9.804255486E0,1.110909581E0
1.234026063E1,-8.140286058E-2,9.806650162E0,1.048660398E0
1.235631264E1,-6.464344263E-2,9.816226959E0,1.043871999E0
1.237233414E1,-7.182604820E-2,9.828198433E0,1.060631394E0
1.238835564E1,-5.267243832E-2,9.825803757E0,1.041477680E0
1.240437714E1,-3.112462163E-2,9.835380554E0,1.039083481E0
1.242039864E1,-1.915361360E-2,9.873687744E0,1.024718285E0
1.243645066E1,2.394201700E-3,9.844957352E0,1.041477680E0
1.245238060E1,2.394201700E-3,9.804255486E0,1.036689281E0
1.246840210E1,-1.436521020E-2,9.804255486E0,1.070208192E0
1.248442360E1,-6.464344263E-2,9.809044838E0,1.074996591E0
1.250044510E1,-7.182604820E-2,9.828198433E0,1.096544385E0
1.251646660E1,-9.097966552E-2,9.811438560E0,1.034295082E0
1.253251862E1,-8.140286058E-2,9.830592155E0,1.067813993E0
1.254854012E1,-8.140286058E-2,9.821015358E0,1.046266198E0
1.256456162E1,-5.267243832E-2,9.849745750E0,1.065419793E0
1.258058312E1,-4.070143029E-2,9.821015358E0,1.079784989E0
1.259660461E1,-5.746084079E-2,9.821015358E0,1.058237195E0
1.261262611E1,-5.985504389E-2,9.835380554E0,1.036689281E0
1.262864761E1,-7.661445439E-2,9.811438560E0,1.043871999E0
1.264466911E1,-7.900865376E-2,9.801861763E0,1.041477680E0
1.266069061E1,-4.788403213E-2,9.825803757E0,1.027112484E0
1.267671211E1,-8.619125932E-2,9.823410034E0,1.094150186E0
1.269273361E1,-1.005564705E-1,9.792284966E0,1.098938584E0
1.270875511E1,-1.005564705E-1,9.816226959E0,1.094150186E0
1.272477661E1,-9.816227108E-2,9.813833237E0,1.065419793E0
1.274079811E1,-6.224924326E-2,9.818621635E0,1.043871999E0
1.275681960E1,-8.140286058E-2,9.825803757E0,1.055842996E0
1.277284110E1,-5.985504389E-2,9.821015358E0,1.034295082E0
1.278886260E1,-8.379705995E-2,9.818621635E0,1.058237195E0
1.280488410E1,-1.125274822E-1,9.835380554E0,1.067813993E0
1.282090560E1,-1.292868853E-1,9.797073364E0,1.086967587E0
1.283692710E1,-1.340752989E-1,9.773131371E0,1.127668977E0
1.285294860E1,-1.412578970E-1,9.773131371E0,1.058237195E0
1.286897010E1,-1.221042871E-1,9.823410034E0,1.084573388E0
1.288499160E1,-6.943184882E-2,9.816226959E0,1.031900883E0
1.290101310E1,-5.746084079E-2,9.835380554E0,1.058237195E0
1.291703460E1,1.436521020E-2,9.830592155E0,1.063025594E0
1.293305609E1,4.548983276E-2,9.816226959E0,1.053448796E0
1.294907759E1,4.070143029E-2,9.830592155E0,1.012747288E0
1.296509909E1,3.591302410E-2,9.811438560E0,1.024718285E0
1.298112059E1,4.788403213E-2,9.830592155E0,1.015141487E0
1.299714209E1,7.182604820E-2,9.871294022E0,9.792284966E-1
1.301316359E1,9.816227108E-2,9.847352028E0,9.840168953E-1
1.302918509E1,9.816227108E-2,9.830592155E0,1.027112484E0
1.304520659E1,5.506663769E-2,9.785101891E0,1.067813993E0
1.306122809E1,-3.112462163E-2,9.792284966E0,1.060631394E0
1.307724959E1,-7.422025502E-2,9.849745750E0,1.036689281E0
1.309327109E1,-1.077390760E-1,9.861717224E0,1.070208192E0
1.310929258E1,-1.005564705E-1,9.878476143E0,1.036689281E0
1.312531408E1,-1.292868853E-1,9.876082420E0,1.031900883E0
1.314124403E1,-1.556231081E-1,9.787496567E0,1.079784989E0
1.315726553E1,-1.125274822E-1,9.749189377E0,1.046266198E0
1.317328703E1,-1.436520964E-1,9.780313492E0,1.019929886E0
1.318930853E1,-1.029506698E-1,9.832986832E0,9.959878922E-1
1.320533003E1,-1.197100878E-1,9.837775230E0,9.816226959E-1
1.322135153E1,-9.337386489E-2,9.830592155E0,9.720458984E-1
1.323737302E1,-9.337386489E-2,9.804255486E0,9.241618514E-1
1.325339453E1,-7.661445439E-2,9.789890289E0,9.313444495E-1
1.326941602E1,-4.788403213E-2,9.854534149E0,9.145850539E-1
1.328543752E1,-7.182605099E-3,9.861717224E0,9.265560508E-1
1.330145902E1,9.576806799E-3,9.837775230E0,9.241618514E-1
1.331748052E1,-1.197100803E-2,9.811438560E0,1.015141487E0
1.333350202E1,-7.182605099E-3,9.789890289E0,1.007958889E0
1.334952352E1,0.000000000E0,9.804255486E0,9.888052940E-1
1.336554502E1,-2.873042040E-2,9.856928825E0,1.010353088E0
1.338153600E1,-6.943184882E-2,9.864110947E0,1.024718285E0
1.339755750E1,-8.619125932E-2,9.861717224E0,1.065419793E0
1.341357900E1,-1.149216816E-1,9.811438560E0,1.053448796E0
1.342960050E1,-1.316810995E-1,9.809044838E0,1.108515382E0
1.344562200E1,-1.436520964E-1,9.818621635E0,1.089361787E0
1.346164350E1,-1.340752989E-1,9.797073364E0,1.086967587E0
1.347766499E1,-1.316810995E-1,9.835380554E0,1.072602391E0
1.349368649E1,-1.412578970E-1,9.835380554E0,1.024718285E0
1.350970799E1,-1.460463107E-1,9.825803757E0,1.055842996E0
1.352572949E1,-1.460463107E-1,9.811438560E0,1.019929886E0
1.354175099E1,-1.436520964E-1,9.818621635E0,1.096544385E0
1.355777249E1,-1.316810995E-1,9.801861763E0,1.053448796E0
1.357379399E1,-1.029506698E-1,9.811438560E0,1.034295082E0
1.358981549E1,-1.077390760E-1,9.823410034E0,1.034295082E0
1.360583699E1,-1.005564705E-1,9.828198433E0,1.067813993E0
1.362185849E1,-1.244984865E-1,9.830592155E0,9.864110947E-1
1.363787999E1,-8.619125932E-2,9.792284966E0,1.010353088E0
1.365390148E1,-3.591302410E-2,9.823410034E0,1.022324085E0
1.366992298E1,-2.394201700E-3,9.835380554E0,1.015141487E0
1.368597500E1,9.576806799E-3,9.871294022E0,9.720458984E-1
1.370199650E1,-9.576806799E-3,9.866505623E0,9.959878922E-1
1.371801800E1,-6.703764945E-2,9.849745750E0,1.000776291E0
1.373403950E1,-8.140286058E-2,9.818621635E0,1.053448796E0
1.375006100E1,-7.182604820E-2,9.844957352E0,1.053448796E0
1.376608250E1,-9.097966552E-2,9.861717224E0,1.115697980E0
1.378210399E1,-7.900865376E-2,9.837775230E0,1.115697980E0
1.379812549E1,-5.985504389E-2,9.794678688E0,1.086967587E0
1.381414699E1,-9.816227108E-2,9.837775230E0,1.053448796E0
1.383016849E1,-2.011129409E-1,9.849745750E0,1.120486379E0
1.384618999E1,-2.226607651E-1,9.854534149E0,1.161187768E0
1.386221149E1,-2.944868207E-1,9.849745750E0,1.209071875E0
1.387823299E1,-2.442085743E-1,9.804255486E0,1.142034173E0
1.389425449E1,-2.968810201E-1,9.782708168E0,1.115697980E0
1.391027599E1,-3.303998411E-1,9.749189377E0,1.077390790E0
1.392629749E1,-2.298433632E-1,9.715670586E0,9.959878922E-1
1.394231898E1,-4.788403213E-2,9.753977776E0,9.935936928E-1
1.395834048E1,5.027823523E-2,9.797073364E0,1.065419793E0
1.397436198E1,2.873042040E-2,9.859322548E0,1.063025594E0
1.399038348E1,7.182605099E-3,9.844957352E0,1.082179189E0
1.400640498E1,-1.915361360E-2,9.828198433E0,1.070208192E0
1.402242648E1,-4.309562966E-2,9.797073364E0,1.070208192E0
1.403844798E1,-4.788403399E-3,9.813833237E0,1.027112484E0
1.405446948E1,1.221042871E-1,9.852140427E0,9.816226959E-1
1.407049098E1,1.340752989E-1,9.878476143E0,9.768342972E-1
1.408651248E1,2.250549644E-1,9.895236015E0,8.906430602E-1
1.410253398E1,1.867477298E-1,9.837775230E0,8.858546019E-1
1.411855547E1,7.900865376E-2,9.797073364E0,9.983820915E-1
1.413457697E1,1.436521020E-2,9.804255486E0,1.091755986E0
1.415059847E1,-4.548983276E-2,9.823410034E0,1.115697980E0
1.416661997E1,-5.267243832E-2,9.792284966E0,1.060631394E0
1.418264147E1,-8.619125932E-2,9.804255486E0,1.142034173E0
1.419866297E1,-1.819593310E-1,9.809044838E0,1.084573388E0
1.421468447E1,-2.322375625E-1,9.777919769E0,1.163581967E0
1.423070597E1,-2.011129409E-1,9.698910713E0,1.043871999E0
1.424672747E1,-6.943184882E-2,9.727641106E0,1.086967587E0
1.426274897E1,4.788403213E-2,9.864110947E0,1.043871999E0
1.427877047E1,4.548983276E-2,9.900024414E0,1.043871999E0
1.429479196E1,1.915361360E-2,9.852140427E0,1.086967587E0
1.431081346E1,2.154781483E-2,9.816226959E0,1.082179189E0
1.432683496E1,-3.830722719E-2,9.823410034E0,1.098938584E0
1.434285646E1,-8.379705995E-2,9.835380554E0,1.103726983E0
1.435887796E1,-7.422025502E-2,9.902418137E0,1.125274777E0
1.437489946E1,-5.985504389E-2,9.897629738E0,1.132457376E0
1.439092096E1,-6.703764945E-2,9.813833237E0,1.060631394E0
1.440694246E1,-1.316810995E-1,9.758766174E0,1.086967587E0
1.442296396E1,-2.250549644E-1,9.806650162E0,1.156399369E0
1.443898546E1,-2.059013397E-1,9.880870819E0,1.233013868E0
1.445503747E1,-1.029506698E-1,9.923966408E0,1.197100878E0
1.447050834E1,-2.394201607E-2,9.816226959E0,1.127668977E0
1.448652984E1,-1.077390760E-1,9.825803757E0,1.244984865E0
1.450255134E1,-1.723825186E-1,9.940725327E0,1.235408068E0
1.451857283E1,-1.819593310E-1,1.006043530E1,1.290474772E0
1.453352623E1,-1.292868853E-1,9.986215591E0,1.134851575E0
1.454954773E1,1.436521020E-2,9.708487511E0,1.132457376E0
1.456556923E1,-2.394201700E-3,9.744400978E0,1.206677675E0
1.458159073E1,-4.070143029E-2,9.967061996E0,1.216254473E0
1.459761223E1,2.394201607E-2,1.005325317E1,1.192312479E0
1.461363373E1,1.508347094E-1,9.856928825E0,1.228225470E0
1.462965523E1,3.256114423E-1,9.466673851E0,1.340752959E0
1.464567673E1,5.291185975E-1,9.299078941E0,1.510741234E0
1.466172874E1,5.698199868E-1,9.334992409E0,1.527500629E0
1.467775024E1,6.153098345E-1,9.282320023E0,1.465251446E0
1.469377174E1,4.908113480E-1,8.947132111E0,1.376665950E0
1.470979324E1,3.782838583E-1,8.372523308E0,1.359906554E0
1.472581474E1,-7.182604820E-2,7.915230751E0,1.403002143E0
1.474183624E1,-5.171475410E-1,7.740454197E0,1.613691926E0
1.475785774E1,-1.051054597E0,8.010998726E0,1.592144132E0
1.477387924E1,-1.611297727E0,8.537723541E0,1.697489023E0
1.478990074E1,-1.922544003E0,9.136273384E0,1.910573006E0
1.480592224E1,-1.853112102E0,1.017775154E1,1.778891921E0
1.482194373E1,-1.544260144E0,1.139161205E1,1.812410712E0
1.483796523E1,-7.302315235E-1,1.264377880E1,3.351882398E-1
1.485398673E1,1.197100803E-2,1.215296745E1,-4.740519226E-1
1.487003875E1,5.434837937E-1,1.179623222E1,-3.112462163E-2
1.488606025E1,4.261679053E-1,1.179144382E1,5.602431893E-1
1.490208175E1,-2.298433632E-1,1.137485218E1,7.350199223E-1
1.491810325E1,-7.469909191E-1,1.037647057E1,1.074996591E0
1.493412474E1,-4.022258818E-1,8.906430244E0,1.003170490E0
1.495014624E1,1.316810995E-1,7.730877399E0,1.067813993E0
1.496616774E1,2.657563984E-1,8.202534676E0,1.395819545E0
1.498218924E1,-3.854664862E-1,9.095572472E0,1.661576033E0
1.499824126E1,-1.197100878E0,9.662998199E0,1.429338455E0
1.501426276E1,-1.721431017E0,1.003170490E1,6.799532771E-1
1.503028426E1,-2.099714994E0,1.034055710E1,9.816227108E-2
1.504630576E1,-2.207453966E0,1.049139214E1,-1.604115069E-1
1.506232726E1,-1.821987510E0,1.002452278E1,-1.101332754E-1
1.507834875E1,-1.604115129E0,1.010113716E1,-1.316810995E-1
1.509437025E1,-1.434126854E0,1.014423275E1,3.112462163E-2
1.511039175E1,-1.137245774E0,1.029985619E1,-3.998316824E-1
1.512641325E1,-9.289502501E-1,9.983820915E0,-1.604115069E-1
1.514243475E1,-1.386242747E0,9.981427193E0,-2.059013397E-1
1.515845625E1,-2.195482969E0,9.854534149E0,6.943184882E-2
1.517447775E1,-2.173935175E0,9.502586365E0,-1.197100878E-1
1.519049925E1,-1.922544003E0,9.287108421E0,-2.035071403E-1
1.520652075E1,-1.750161409E0,9.308655739E0,5.506663769E-2
1.522254225E1,-1.826775908E0,9.241618156E0,-7.182604820E-2
1.523856374E1,-1.944091797E0,9.112331390E0,-8.140286058E-2
1.525458524E1,-1.893813491E0,9.153033257E0,-8.379705995E-2
1.527060674E1,-2.104503393E0,8.935160637E0,1.388636976E-1
1.528665876E1,-2.068590164E0,8.662221909E0,-9.816227108E-2
1.530258871E1,-1.915361404E0,8.475474358E0,-3.280056417E-1
1.531861020E1,-1.632845521E0,8.705317497E0,-2.178723514E-1
1.533463171E1,-1.663970232E0,9.136273384E0,-5.267243832E-2
1.535065320E1,-1.726219416E0,9.224859238E0,-2.202665508E-1
1.536667470E1,-2.023100376E0,8.932766914E0,-2.442085743E-1
1.538269620E1,-2.382230759E0,8.736441612E0,-5.027823523E-2
1.539871770E1,-2.236184359E0,9.109937668E0,4.548983276E-2
1.541473920E1,-2.298433542E0,9.045293808E0,9.816227108E-2
1.543076070E1,-2.851494312E0,8.851364136E0,-1.029506698E-1
1.544678220E1,-3.296815634E0,8.990227699E0,4.788403213E-2
1.546283421E1,-3.756502390E0,9.830592155E0,-1.029506698E-1
1.547885571E1,-3.303998232E0,1.102529907E1,-2.681505978E-1
1.549487721E1,-3.292027235E0,1.213142014E1,1.173158810E-1
1.551089871E1,-2.734178305E0,1.275870132E1,-3.184288144E-1
1.552692021E1,-1.031900883E0,1.230380249E1,-5.410895944E-1
1.554294171E1,-4.309563041E-1,1.220563984E1,-8.236053586E-1
1.555899373E1,-8.954314590E-1,1.285446930E1,-7.852981687E-1
1.557501523E1,-2.952050686E0,1.360145950E1,-6.153098345E-1
1.559103672E1,-4.010287762E0,1.411142445E1,-4.596867263E-1
1.560705822E1,-3.284844637E0,1.369722748E1,-2.154781520E-1
1.562307972E1,-2.097320795E0,1.266293240E1,2.106897533E-1
1.563910122E1,-1.503558636E0,1.164060879E1,3.303998411E-1
1.565512272E1,-1.647210717E0,1.103248119E1,7.086837292E-1
1.567114422E1,-1.697489023E0,1.103248119E1,8.427590132E-1
1.568716572E1,-2.049436569E0,1.190397072E1,4.716577232E-1
1.570318722E1,-3.318363667E0,1.421676922E1,7.517793179E-1
1.571920872E1,-3.162740469E0,1.424550056E1,6.775590777E-1
1.573523022E1,-1.747767210E0,1.485123348E1,1.173158884E0
1.575125172E1,-8.643068075E-1,1.472434044E1,1.247379065E0
1.576727321E1,-2.681505978E-1,1.383369732E1,8.619126081E-1
1.578329471E1,2.920926213E-1,1.226310158E1,1.055842996E0
1.579931621E1,1.218648672E0,1.018253994E1,1.108515382E0
1.581536823E1,1.731007814E0,8.475474358E0,1.429338455E0
1.583138973E1,2.126051188E0,7.608773232E0,1.623268723E0
1.584741123E1,1.963245392E0,7.584830761E0,1.355118155E0
1.586343273E1,1.369483352E0,7.618350029E0,1.125274777E0
1.587945423E1,8.786720037E-1,8.147468567E0,9.074024558E-1
1.589550624E1,8.355764151E-1,8.415618896E0,1.034295082E0
1.591152774E1,1.194706678E0,9.016563416E0,1.058237195E0
1.592754924E1,1.429338455E0,9.414001465E0,9.361328483E-1
1.594357074E1,1.762132406E0,9.440337181E0,9.002198577E-1
1.595959224E1,1.838746905E0,8.892065048E0,8.475474119E-1
1.597561374E1,1.960851192E0,8.777143478E0,8.403648138E-1
1.599169627E1,2.130839586E0,8.805873871E0,8.188169599E-1
1.600771777E1,2.149993181E0,9.021351814E0,1.304839969E0
1.602373927E1,1.889025092E0,9.277531624E0,1.400607944E0
1.603976077E1,1.144428372E0,9.844957352E0,1.264138460E0
1.605578227E1,7.589619160E-1,9.445125580E0,1.046266198E0
1.607183428E1,1.197100878E-1,9.445125580E0,1.012747288E0
1.608785578E1,2.154781520E-1,8.540117264E0,1.039083481E0
1.610387728E1,-1.436521020E-2,8.410830498E0,1.438915253E0
1.611989878E1,-1.005564705E-1,8.698134422E0,1.426944256E0
1.613592028E1,9.576806799E-3,7.970297337E0,1.319205165E0
1.615194178E1,3.280056417E-1,8.437167168E0,1.546654344E0
1.616799379E1,5.770025849E-1,8.652645111E0,1.630451322E0
1.618401529E1,3.280056417E-1,8.808267593E0,1.458068848E0
1.620003679E1,3.806780577E-1,7.982268333E0,1.278503656E0
1.621605829E1,-1.149216816E-1,7.876923561E0,1.884236693E0
1.623207979E1,-5.506663769E-2,6.864176273E0,1.338358760E0
1.624810129E1,-7.062895298E-1,6.847416878E0,1.546654344E0
1.626412279E1,-9.385270476E-1,6.196194172E0,1.611297727E0
1.628014429E1,-9.265560508E-1,6.521805286E0,1.596932530E0
1.629616579E1,-8.403648138E-1,6.969521046E0,1.103726983E0
1.631218729E1,-1.029506683E0,7.472303391E0,7.230489254E-1
1.632820878E1,-8.379706144E-1,7.153874874E0,4.908113480E-1
1.634423028E1,-2.466027737E-1,6.560112476E0,8.068459630E-1
1.636025178E1,1.675941236E-2,5.947196960E0,1.027112484E0
1.637627328E1,1.446097851E0,6.615179062E0,1.592144132E0
1.639229478E1,3.153163671E0,8.889671326E0,2.801215947E-1
1.640831628E1,3.402160645E0,1.073320580E1,4.860229492E-1
1.642433778E1,2.035071403E-1,1.487278080E1,5.386953950E-1
1.644038980E1,-5.650315881E-1,1.429098988E1,3.830722570E-1
1.645641130E1,-1.350329757E0,1.189439392E1,5.243301988E-1
1.647243279E1,-1.338358760E0,1.048181534E1,7.589619160E-1
1.648845429E1,-5.530605912E-1,9.859322548E0,1.505952835E0
1.650447579E1,4.668693244E-1,9.969455719E0,1.247379065E0
1.652049729E1,1.996764183E0,1.014902115E1,1.443703651E0
1.653651879E1,1.900996208E0,9.914389610E0,1.280897856E0
1.655254029E1,7.326257229E-1,1.015141487E1,9.600749016E-1
1.656856179E1,4.094084799E-1,1.071405220E1,1.115697980E0
1.658458329E1,8.403648138E-1,1.014183807E1,9.959878922E-1
1.660063530E1,2.609679997E-1,9.064447403E0,4.764461517E-1
1.661665680E1,-3.184288144E-1,8.801085472E0,4.525041282E-1
1.663267830E1,-3.615244627E-1,9.035717010E0,6.871358752E-1
1.664869980E1,-1.747767180E-1,9.430760384E0,8.188169599E-1
1.666472130E1,3.088520169E-1,9.339780807E0,6.751648784E-1
1.668074280E1,6.679822803E-1,9.129091263E0,7.876923680E-1
1.669676430E1,7.062895298E-1,8.805873871E0,9.002198577E-1
1.671278580E1,6.033388376E-1,8.145073891E0,8.283938169E-1
1.672880730E1,1.628057212E-1,7.249642849E0,7.637503147E-1
1.674482880E1,-4.237737060E-1,6.500257492E0,6.224924326E-1
1.676085029E1,-1.819593310E-1,7.072471619E0,6.512228847E-1
1.677687179E1,-9.576806799E-3,8.585607529E0,6.368576288E-1
1.679289329E1,-1.173158810E-1,9.545681953E0,4.094084799E-1
1.680891479E1,-6.416460276E-1,9.662998199E0,5.219359994E-1
1.682496681E1,-3.303998411E-1,9.275136948E0,8.738836050E-1
1.684098831E1,8.954314590E-1,8.130708694E0,5.363011956E-1
1.685700981E1,6.991068721E-1,7.623138428E0,4.740519226E-1
1.687303130E1,1.022324085E0,6.914454460E0,9.385270476E-1
1.688905280E1,1.039083481E0,6.672640324E0,1.122880578E0
1.690507430E1,1.268926859E0,7.340622425E0,1.034295082E0
1.692109580E1,4.955997467E-1,8.911218643E0,1.125274777E0
1.693711730E1,8.044517636E-1,9.145850182E0,1.031900883E0
1.695313880E1,1.053448766E-1,1.038604736E1,8.810662031E-1
1.696916030E1,-4.548983276E-2,9.907206535E0,3.423708379E-1
1.698518180E1,-9.097966552E-2,9.473855972E0,4.788403511E-1
1.700120330E1,-2.178723514E-1,9.593565941E0,9.169792533E-1
1.701722480E1,-6.057330370E-1,9.121908188E0,1.189918280E0
1.703324630E1,-6.871358752E-1,9.667786598E0,1.616086125E0
1.704926780E1,3.950432837E-1,9.792284966E0,1.795651317E0
1.706528929E1,1.058237195E0,9.916783333E0,1.249773264E0
1.708131079E1,1.726219416E0,8.571242332E0,8.355764151E-1
1.709733229E1,1.881842494E0,7.371747017E0,4.764461517E-1
1.711335379E1,1.975216389E0,6.873753071E0,1.015141487E0
1.712937529E1,7.182605267E-1,8.130708694E0,1.113303781E0
1.714539679E1,5.027823448E-1,8.336610794E0,7.517793179E-1
1.716141829E1,6.320692301E-1,1.007480049E1,8.571242094E-1
1.717743979E1,8.882488012E-1,9.155426979E0,8.954314590E-1
1.719346129E1,1.199495077E0,7.060500622E0,4.788403511E-1
1.720948279E1,1.400607944E0,6.646304131E0,8.475474119E-1
1.722550428E1,1.280897856E0,5.559336185E0,1.297657371E0
1.724152578E1,1.225831270E0,5.372588634E0,1.855506301E0
1.725754728E1,4.764461517E-1,6.943184853E0,3.588908434E0
1.727356878E1,6.177040339E-1,9.883264542E0,4.637568474E0
1.728959028E1,3.040636182E-1,1.065180302E1,4.800374508E0
1.730561178E1,-1.697489023E0,9.775525093E0,5.827486992E0
1.732163328E1,-5.707777023E0,1.165736771E1,6.943184853E0
1.733765478E1,-7.374141216E0,1.412339592E1,7.630321026E0
1.735367628E1,-9.461885452E0,1.786792755E1,7.987056732E0
1.736969778E1,-9.375694275E0,1.810016441E1,7.082048416E0
1.738571928E1,-7.407660007E0,1.551682091E1,5.310339451E0
1.740174078E1,-5.861005783E0,1.218648624E1,6.196194172E0
1.741776227E1,-5.039794445E0,1.111627865E1,7.860164165E0
1.743378377E1,-5.066130638E0,1.113543224E1,7.924807549E0
1.744980527E1,-4.757278919E0,1.100853920E1,6.619967937E0
1.746582677E1,-4.194641590E0,9.859322548E0,5.322310448E0
1.748184827E1,-3.799597979E0,9.354146004E0,4.249708176E0
1.749786977E1,-3.459621429E0,9.382876396E0,3.924096584E0
1.751389127E1,-3.466804028E0,9.244012833E0,4.345476151E0
1.752991277E1,-4.072536945E0,9.509769440E0,5.030217648E0
1.754593427E1,-4.060565948E0,9.387664795E0,5.561730385E0
1.756195577E1,-3.201047659E0,8.348581314E0,5.181052685E0
1.757797726E1,-2.281674147E0,7.082048416E0,4.450820923E0
1.759399876E1,-2.430114746E0,5.920860767E0,4.055777550E0
1.761002026E1,-2.882618904E0,5.662287235E0,3.883395195E0
1.762604176E1,-3.239354849E0,5.693411827E0,3.794809580E0
1.764209378E1,-3.248931646E0,6.021417141E0,4.211400986E0
1.765811528E1,-2.983175278E0,6.837840080E0,4.331110954E0
1.767413678E1,-2.820369720E0,7.896077156E0,4.460397720E0
1.769015828E1,-2.985569477E0,8.458714485E0,4.604049683E0
1.770617977E1,-3.342305660E0,8.432378769E0,4.486733913E0
1.772220127E1,-3.253720045E0,7.917624950E0,4.321534157E0
1.773822277E1,-3.134010077E0,7.383718014E0,4.220977783E0
1.775424427E1,-2.916137695E0,7.105990410E0,4.228160381E0
1.777026577E1,-2.497152328E0,7.024587631E0,4.096478939E0
1.778628727E1,-2.375048161E0,7.271190643E0,3.890577793E0
1.780230877E1,-2.396595955E0,7.687781811E0,3.761290789E0
1.781833027E1,-2.243366957E0,8.003816605E0,3.679888010E0
1.783435177E1,-2.015917778E0,8.451532364E0,3.572149038E0
1.785037327E1,-2.027888775E0,8.781931877E0,3.426102638E0
1.786639477E1,-1.915361404E0,9.126696587E0,3.632004023E0
1.788241626E1,-1.671152830E0,8.848969460E0,3.512293816E0
1.789843776E1,-1.446097851E0,8.475474358E0,3.227383852E0
1.791445926E1,-2.473210335E0,8.520963669E0,3.454833031E0
1.793048076E1,-2.310404539E0,8.786720276E0,3.569754839E0
1.794650226E1,-1.637633920E0,9.069235802E0,3.610456228E0
1.796255428E1,-1.726219416E0,8.695740700E0,3.078943491E0
1.797857578E1,-1.551442742E0,8.784325600E0,2.638410330E0
1.799459728E1,-2.851494312E0,9.203310966E0,2.461239338E0
1.801061877E1,-2.147598982E0,9.485827446E0,2.760514498E0
1.802664027E1,-1.821987510E0,9.186552048E0,3.153163671E0
1.804266177E1,-9.600749016E-1,9.244012833E0,2.944868088E0
1.805868327E1,-5.291185975E-1,9.368511200E0,2.825158119E0
1.807470477E1,-9.457096457E-1,9.313444138E0,2.590526342E0
1.809072627E1,-4.357447028E-1,9.414001465E0,2.877830505E0
1.810674777E1,-1.323993564E0,9.275136948E0,2.346317768E0
1.812279978E1,-1.292868972E0,9.574412346E0,2.260126352E0
1.813882128E1,-1.249773264E0,9.291896820E0,2.255337954E0
1.815484278E1,-1.242590666E0,8.923190117E0,2.513911724E0
1.817086428E1,-1.374271750E0,9.215282440E0,2.027888775E0
1.818688578E1,7.374141216E-1,8.652645111E0,1.999158382E0
1.820290728E1,1.206677675E0,1.007958889E1,1.482010841E0
1.821892878E1,4.596867263E-1,1.290953541E1,1.204283476E0
1.823498080E1,5.650315881E-1,1.249294472E1,8.523358107E-1
1.825100229E1,1.098938584E0,9.490615845E0,9.672574997E-1
1.826702379E1,4.094084799E-1,9.239224434E0,1.410184860E0
1.828304529E1,3.854664862E-1,9.011775017E0,1.300051570E0
1.829906679E1,5.554547906E-1,9.768342972E0,1.656787634E0
1.831508829E1,1.031900883E0,1.011550236E1,1.417367458E0
1.833110979E1,1.388636947E0,9.643844604E0,1.489193439E0
1.834716181E1,1.211466074E0,9.047688484E0,1.462857246E0
1.836318330E1,4.979939461E-1,9.447520256E0,1.912967205E0
1.837920480E1,-2.489969730E-1,1.042435455E1,1.345541358E0
1.839522630E1,-1.115697980E0,1.100375080E1,1.118092179E0
1.841124780E1,-1.812410712E0,1.091277122E1,1.391031146E0
1.842726930E1,-2.020706177E0,1.050575733E1,1.273715258E0
1.844329080E1,-1.692700624E0,9.847352028E0,1.242590666E0
1.845931230E1,-1.256955862E0,9.504981041E0,1.247379065E0
1.847536432E1,-6.799532771E-1,9.648633003E0,1.017535686E0
1.849138582E1,-1.939303428E-1,9.837775230E0,9.911994934E-1
1.850740731E1,5.458779931E-1,9.926360130E0,6.943184733E-1
1.852342881E1,1.098938584E0,9.928754807E0,5.793967843E-1
1.853945031E1,1.137245774E0,9.962273598E0,5.171475410E-1
1.855547181E1,7.829039693E-1,1.006522369E1,4.788403511E-1
1.857152383E1,3.591302633E-1,1.016817474E1,6.488286853E-1
1.858754533E1,-2.154781520E-1,1.003649330E1,1.182735682E0
1.860356682E1,-4.596867263E-1,9.868899345E0,1.335964561E0
1.861958833E1,-4.668693244E-1,9.974244118E0,1.625662923E0
1.863564034E1,-4.453215301E-1,9.919178009E0,1.364694953E0
1.865166184E1,-1.723825186E-1,9.543288231E0,1.036689281E0
1.866768334E1,-2.657563984E-1,9.538499832E0,8.020575643E-1
1.868370484E1,-5.363011956E-1,9.959878922E0,7.158663273E-1
1.869972634E1,-6.967126727E-1,1.023281765E1,6.105214357E-1
1.871574784E1,-8.762778044E-1,1.035731697E1,4.501099288E-1
1.873176934E1,-9.983820915E-1,1.014183807E1,3.351882398E-1
1.874779084E1,-1.010353088E0,9.816226959E0,2.059013397E-1
1.876381233E1,-1.086967587E0,9.715670586E0,1.843535304E-1
1.877983383E1,-1.137245774E0,9.579200745E0,3.543418646E-1
1.879585533E1,-1.479616642E0,9.368511200E0,2.609679997E-1
1.881190735E1,-1.728613615E0,9.303867340E0,2.442085743E-1
1.882792885E1,-1.838746905E0,9.935936928E0,3.447650373E-1
1.884395035E1,-2.231395960E0,1.004367638E1,2.992752194E-1
1.885997185E1,-1.848323703E0,9.856928825E0,2.394201756E-1
1.887599334E1,-1.053448796E0,9.603142738E0,3.519476354E-1
1.889201484E1,-8.116343617E-1,9.689333916E0,7.278373241E-1
1.890803634E1,-6.727706790E-1,9.813833237E0,6.919242740E-1
1.892405784E1,-6.129156351E-1,9.682151794E0,5.793967843E-1
1.894007934E1,-5.003881454E-1,9.619902611E0,5.961562395E-1
1.895610084E1,-1.089361787E0,9.890447617E0,6.129156351E-1
1.897212234E1,-1.424550056E0,9.749189377E0,4.620809257E-1
1.898814384E1,-1.606509328E0,9.392453194E0,4.668693244E-1
1.900416534E1,-1.570596337E0,9.165003777E0,5.865794420E-1
1.902018684E1,-1.496376038E0,9.117119789E0,5.386953950E-1
1.903617782E1,-1.278503656E0,9.057265282E0,4.836287498E-1
1.905219932E1,-1.130063176E0,9.153033257E0,3.878606856E-1
1.906822082E1,-1.388636947E0,9.361329079E0,3.447650373E-1
1.908424232E1,-1.810016513E0,9.464279175E0,1.747767180E-1
1.910029433E1,-2.264914751E0,9.334992409E0,3.112462163E-1
1.911631583E1,-2.157175779E0,8.901641846E0,4.644751251E-1
1.913233733E1,-2.126051188E0,8.473079681E0,7.493851185E-1
1.914835883E1,-1.771709204E0,8.078036308E0,6.224924326E-1
1.916438033E1,-1.558625340E0,7.544129372E0,4.165911078E-1
1.918040183E1,-1.812410712E0,7.484274387E0,2.968810201E-1
1.919642333E1,-2.339135170E0,7.620744228E0,1.460463107E-1
1.921244483E1,-2.233790159E0,8.025363922E0,2.801215947E-1
1.922843581E1,-2.319981337E0,8.868123055E0,4.620809257E-1
1.924445731E1,-2.870647907E0,9.643844604E0,5.913678408E-1
1.926050932E1,-3.040636063E0,1.021127033E1,5.841852427E-1
1.927653082E1,-2.839523315E0,1.098938560E1,3.902548850E-1
1.929255232E1,-2.372653961E0,1.245463753E1,5.626373887E-1
1.930854330E1,-2.080561161E0,1.378102493E1,4.022258818E-1
1.932456480E1,-2.645592928E0,1.420240402E1,-1.843535304E-1
1.934058630E1,-3.830722809E0,1.461899567E1,1.292868853E-1
1.935660780E1,-5.200206280E0,1.523430538E1,1.228225470E0
1.937262930E1,-5.456385612E0,1.524388218E1,1.482010841E0
1.938865080E1,-4.295197964E0,1.508347034E1,1.096544385E0
1.940467230E1,-2.422932148E0,1.559104156E1,-6.464344263E-2
1.942069380E1,-2.229001760E0,1.675462341E1,-8.068459630E-1
1.943671530E1,-1.877054095E0,1.752795029E1,-6.248866320E-1
1.945273679E1,-1.831564307E0,1.728853035E1,-3.615244627E-1
1.946875829E1,-9.959878922E-1,1.556231117E1,1.364694983E-1
1.948477979E1,-2.896983922E-1,1.430296135E1,6.607996821E-1
1.950080129E1,1.022324085E0,1.193030739E1,1.173158884E0
1.951682279E1,1.261744261E0,1.009395409E1,1.254561663E0
1.953284429E1,7.398083210E-1,9.732429504E0,1.984793186E0
1.954886579E1,6.607996821E-1,9.679757118E0,1.941697598E0
1.956488729E1,-7.422025502E-2,9.488221169E0,1.596932530E0
1.958090879E1,-9.504981041E-1,9.052476883E0,1.553836942E0
1.959693029E1,-1.228225470E0,7.764396191E0,1.869871497E0
1.961295178E1,-1.338358760E0,7.240066051E0,2.274491549E0
1.962897328E1,-2.992752194E-1,7.271190643E0,1.786074519E0
1.964499478E1,5.937620401E-1,7.474697590E0,1.142034173E0
1.966101628E1,8.259995580E-1,7.829039574E0,7.422025204E-1
1.967703778E1,9.241618514E-1,8.336610794E0,3.471592367E-1
1.969305928E1,1.558625340E0,8.322244644E0,1.125274822E-1
1.970908078E1,1.766920805E0,8.401253700E0,8.379705995E-2
1.972510228E1,1.951274395E0,8.006210327E0,-8.140286058E-2
1.974115430E1,2.183511972E0,7.644686222E0,3.184288144E-1
1.975717579E1,2.205059767E0,8.200140953E0,5.315127969E-1
1.977319729E1,2.525882721E0,7.592013359E0,8.547300100E-1
1.978921879E1,1.776497602E0,8.358158112E0,1.223437071E0
1.980524029E1,1.441309452E0,9.449913979E0,1.410184860E0
1.982126179E1,1.292868972E0,7.948749542E0,3.926490843E-1
1.983728329E1,4.285621047E-1,8.118738174E0,1.405396342E0
1.985330479E1,8.236053586E-1,6.634333134E0,5.937620401E-1
1.986932629E1,5.889736414E-1,6.526593685E0,6.224924326E-1
1.988534779E1,7.733271718E-1,6.770802498E0,1.142034173E0
1.990136928E1,1.204283476E0,7.522581577E0,1.266532660E0
1.991739079E1,1.024718285E0,8.597578049E0,1.766920805E0
1.993341228E1,9.959878922E-1,9.241618156E0,1.953668594E0
1.994943378E1,9.385270476E-1,9.210494041E0,2.013523579E0
1.996545528E1,6.919242740E-1,9.102754593E0,2.085349798E0
1.998147678E1,4.357447028E-1,9.418789864E0,1.929726601E0
1.999749828E1,5.746084079E-2,9.287108421E0,1.778891921E0
2.001351978E1,-1.987187415E-1,9.193734169E0,1.678335428E0
2.002954128E1,2.394201700E-3,9.234436035E0,1.393425345E0
2.004556278E1,4.309562966E-2,9.224859238E0,1.460463047E0
2.006158428E1,5.985504389E-2,9.129091263E0,1.841141105E0
2.007760578E1,3.351882473E-2,9.009381294E0,2.047042370E0
2.009365779E1,-1.053448766E-1,8.578424454E0,2.015917778E0
2.010967929E1,-1.987187415E-1,8.044517517E0,2.023100376E0
2.012570079E1,1.580173075E-1,7.161057472E0,2.094926596E0
2.014172229E1,-4.477157295E-1,7.489062786E0,1.994369984E0
2.015774379E1,-2.992752194E-1,7.218518257E0,1.613691926E0
2.017376529E1,-2.825157940E-1,6.928819656E0,1.371877551E0
2.018978679E1,-1.508347094E-1,7.120356083E0,1.312022567E0
2.020580829E1,1.340752989E-1,7.539340973E0,1.017535686E0
2.022182978E1,5.003881454E-1,8.027758598E0,5.051765442E-1
2.023785128E1,8.451532125E-1,8.499416351E0,6.440402865E-1
2.025387278E1,9.816226959E-1,8.834604263E0,9.337386489E-1
2.026989428E1,1.209071875E0,8.896853447E0,1.163581967E0
2.028591578E1,1.544260144E0,9.179368973E0,8.188169599E-1
2.030193728E1,1.472434044E0,9.897629738E0,1.043871999E0
2.031795878E1,1.795651317E0,1.066377449E1,1.213860273E0
2.033398028E1,2.054224968E0,1.138203526E1,1.484405041E0
2.035000178E1,2.360682964E0,1.199495029E1,1.103726983E0
2.036602328E1,2.528276920E0,1.239957047E1,1.029506698E-1
2.038204478E1,2.715024710E0,1.189918232E1,-1.723825186E-1
2.039806627E1,2.403778553E0,1.084333992E1,-3.663128614E-1
2.041408777E1,8.643068075E-1,9.861717224E0,8.044517636E-1
2.043010927E1,-6.248866320E-1,9.234436035E0,1.307234168E0
2.044613077E1,-1.022324085E0,9.876082420E0,1.338358760E0
2.046215227E1,-1.019929886E0,1.042674828E1,1.486799240E0
2.047817377E1,-8.547300100E-1,1.151371574E1,1.436521053E0
2.049419527E1,-3.184288144E-1,1.194706631E1,1.249773264E0
2.051024729E1,7.900865376E-2,1.129823780E1,7.924807668E-1
2.052626878E1,3.567360640E-1,1.053448772E1,8.188169599E-1
2.054229028E1,3.591302633E-1,9.849745750E0,6.416460276E-1
2.055831178E1,4.381389022E-1,9.085995674E0,5.626373887E-1
2.057433328E1,3.615244627E-1,8.667010307E0,5.722141862E-1
2.059035478E1,6.248866320E-1,8.726864815E0,9.313444495E-1
2.060637628E1,7.637503147E-1,8.872911453E0,9.983820915E-1
2.062239778E1,7.398083210E-1,8.961497307E0,6.751648784E-1
2.063841928E1,5.339069963E-1,8.762778282E0,8.714894056E-1
2.065441026E1,6.871358752E-1,8.245630264E0,7.661445141E-1
2.067043176E1,5.889736414E-1,8.109161377E0,5.123591423E-1
2.068645326E1,9.050082564E-1,8.142680168E0,3.040636182E-1
2.070250527E1,4.979939461E-1,8.427590370E0,1.436520964E-1
2.071849626E1,5.985504389E-1,8.762778282E0,1.963245422E-1
2.073451776E1,2.657563984E-1,9.418789864E0,2.202665508E-1
2.075053925E1,3.280056417E-1,9.720458984E0,6.512228847E-1
2.076656075E1,9.193734527E-1,9.215282440E0,5.746083856E-1
2.078249070E1,1.046266198E0,8.425195694E0,4.501099288E-1
2.079851220E1,1.367089152E0,7.287950039E0,2.106897533E-1
2.081453370E1,1.412579060E0,7.316680431E0,2.873041928E-1
2.083055520E1,1.510741234E0,6.739677906E0,-3.782838583E-1
2.084657670E1,1.280897856E0,6.806715488E0,6.703764945E-2
2.086259820E1,5.889736414E-1,6.294356346E0,6.224924326E-2
2.087861970E1,-8.140286058E-2,6.418854713E0,2.035071403E-1
2.089464119E1,0.000000000E0,6.457161903E0,6.823474765E-1
2.091066269E1,6.751648784E-1,7.860164165E0,8.978256583E-1
2.092668419E1,1.170764685E0,9.957485199E0,9.552865028E-1
2.094270569E1,1.359906554E0,1.100853920E1,5.554547906E-1
2.095872719E1,1.323993564E0,1.050815105E1,2.154781483E-2
2.097474869E1,1.742978811E0,9.794678688E0,-1.699883193E-1
2.099077019E1,1.051054597E0,1.007240677E1,5.674257874E-1
2.100679169E1,9.840168953E-1,9.916783333E0,1.292868972E0
2.102281319E1,1.616086125E0,8.887276649E0,9.337386489E-1
2.103883469E1,2.032677174E0,7.864952564E0,7.565677166E-1
2.105485619E1,2.106897593E0,8.238448143E0,7.565677166E-1
2.107087768E1,3.181894064E0,8.595184326E0,3.639186621E-1
2.108686867E1,2.547430515E0,9.622296333E0,7.900865674E-1
2.110292068E1,1.788468719E0,8.719682693E0,9.457096457E-1
2.111894218E1,1.936909199E0,8.793902397E0,6.057330370E-1
2.113496368E1,1.307234168E0,7.776367188E0,6.799532771E-1
2.115095466E1,4.884171486E-1,6.720524311E0,1.127668977E0
2.116697616E1,5.147533417E-1,6.088454723E0,1.098938584E0
2.118299766E1,6.703764945E-2,7.223306656E0,1.611297727E0
2.119901916E1,1.005564705E-1,9.131484985E0,2.789244890E0
2.121504066E1,-2.873042040E-2,1.114022064E1,2.925714493E0
2.123106216E1,-7.134721279E-1,1.118331623E1,2.504334927E0
2.124708366E1,-1.814804912E0,1.219366932E1,3.701435804E0
2.126310516E1,-3.663128614E0,1.422874069E1,4.204218388E0
2.127912666E1,-5.561730385E0,1.603157425E1,5.528211594E0
2.129514815E1,-6.706159115E0,1.641464615E1,6.136339188E0
2.131116965E1,-5.619191170E0,1.335964584E1,5.748478413E0
2.132719115E1,-3.476380825E0,9.883264542E0,4.977545261E0
2.134321265E1,-2.269703150E0,9.727641106E0,5.552153587E0
2.135923415E1,-3.371036053E0,1.261983681E1,8.221688271E0
2.137525565E1,-5.391742229E0,1.619916916E1,8.358158112E0
2.139127715E1,-4.522646904E0,1.507149982E1,6.713341713E0
2.140729865E1,-3.950432777E0,1.245224285E1,4.441244125E0
2.142332015E1,-5.049371243E0,1.045069027E1,3.545812607E0
2.143934165E1,-5.983109951E0,9.548076630E0,5.051765442E0
2.145536314E1,-6.892906666E0,9.260771751E0,6.390124321E0
2.147141516E1,-7.376535416E0,8.631096840E0,7.146692276E0
2.148743666E1,-6.186617374E0,7.551311970E0,6.406883717E0
2.150345816E1,-4.596867085E0,6.136339188E0,5.178658485E0
2.151947966E1,-3.557783842E0,4.824316502E0,3.933673382E0
2.153550116E1,-2.920926094E0,4.544194698E0,3.294421434E0
2.155152266E1,-2.557007313E0,5.008669853E0,3.155557871E0
2.156754416E1,-2.286462545E0,5.973533154E0,3.315969467E0
2.158356565E1,-2.339135170E0,6.567295074E0,3.670311213E0
2.159958715E1,-2.506729126E0,6.907271862E0,3.440467834E0
2.161560865E1,-2.557007313E0,7.426813602E0,3.215412855E0
2.163163015E1,-2.513911724E0,7.941566944E0,3.277662039E0
2.164765165E1,-2.298433542E0,8.310274124E0,3.117250681E0
2.166370367E1,-2.377442360E0,8.504204750E0,2.961627483E0
2.167972517E1,-2.475604534E0,8.336610794E0,3.330334663E0
2.169574666E1,-2.717418909E0,8.688557625E0,3.399766445E0
2.171176817E1,-2.430114746E0,9.042900085E0,3.845088005E0
2.172778966E1,-1.757344007E0,9.002198219E0,3.438073635E0
2.174381116E1,-1.405396342E0,8.901641846E0,3.526659012E0
2.175983266E1,-2.327163935E0,8.987833023E0,2.822763920E0
2.177585416E1,-2.217030764E0,9.062053680E0,3.066972494E0
2.179187566E1,-3.107673883E0,9.018958092E0,2.640804529E0
2.180789716E1,-1.845929503E0,8.980650902E0,2.774879694E0
2.182391866E1,-1.900996208E0,9.083600998E0,2.612074137E0
2.183994016E1,-2.243366957E0,9.282320023E0,2.944868088E0
2.185596166E1,-3.282450438E0,9.634267807E0,2.595314741E0
2.187198316E1,-2.710236311E0,9.392453194E0,2.624045134E0
2.188800466E1,-1.912967205E0,9.404424667E0,2.315192938E0
2.190402615E1,-1.606509328E0,9.765948296E0,1.948880196E0
2.192004765E1,-2.082955360E0,1.063025570E1,2.037465572E0
2.193606915E1,-1.199495077E0,1.048899746E1,2.102109194E0
2.195209065E1,-1.154005170E0,1.050815105E1,2.492363930E0
2.196811215E1,-9.361328483E-1,9.227252960E0,2.015917778E0
2.198416417E1,-6.320692301E-1,8.046912193E0,2.454056740E0
2.200018566E1,-1.285686255E0,7.831433773E0,2.317587137E0
2.201620716E1,-4.165911078E-1,7.565677166E0,2.102109194E0
2.203222866E1,-1.017535686E0,9.457097054E0,2.181117773E0
2.204825016E1,-1.168370485E0,1.100853920E1,2.221819162E0
2.206427166E1,-1.335964561E0,1.173877048E1,1.580173135E0
2.208029316E1,-4.979939461E-1,1.093192482E1,1.259350061E0
2.209631466E1,-6.368576288E-1,1.022084713E1,1.489193439E0
2.211233616E1,-3.663128614E-1,9.035717010E0,1.364694953E0
2.212835766E1,-3.519476354E-1,9.454702377E0,1.709460020E0
2.214437916E1,-3.112462163E-1,1.000536919E1,2.205059767E0
2.216040066E1,-5.099649429E-1,1.077630138E1,1.956062794E0
2.217642216E1,-6.607996821E-1,1.074757099E1,1.572990537E0
2.219244365E1,-6.607996821E-1,9.581595421E0,1.376665950E0
2.220846515E1,-6.464344859E-1,9.816226959E0,1.182735682E0
2.222448665E1,-9.002198577E-1,9.730035782E0,1.084573388E0
2.224050815E1,-1.175553083E0,9.732429504E0,1.211466074E0
2.225652965E1,-1.340752959E0,9.557653427E0,1.216254473E0
2.227255115E1,-1.407790542E0,1.006522369E1,1.450886250E0
2.228857265E1,-9.074024558E-1,9.825803757E0,1.225831270E0
2.230459415E1,-8.164227605E-1,9.940725327E0,1.271321058E0
2.232061565E1,-6.871358752E-1,9.856928825E0,1.364694953E0
2.233663715E1,-6.751648784E-1,9.564835548E0,1.321599364E0
2.235265864E1,-6.919242740E-1,9.399636269E0,1.345541358E0
2.236868014E1,-5.961562395E-1,9.430760384E0,1.470039845E0
2.238470164E1,-3.184288144E-1,9.457097054E0,1.747767210E0
2.240072314E1,-2.154781483E-2,9.299078941E0,1.644816518E0
2.241674464E1,5.746084079E-2,9.244012833E0,1.671152830E0
2.243276614E1,-3.112462163E-2,9.418789864E0,1.642422318E0
2.244878764E1,-3.256114423E-1,9.521739960E0,1.103726983E0
2.246480914E1,-3.615244627E-1,9.825803757E0,9.121908545E-1
2.248083064E1,-4.860229492E-1,9.854534149E0,9.864110947E-1
2.249685214E1,-5.578489900E-1,1.003170490E1,7.613561153E-1
2.251287364E1,-4.908113480E-1,9.751583099E0,1.029506683E0
2.252889514E1,-5.746083856E-1,9.732429504E0,1.268926859E0
2.254482508E1,-7.733271718E-1,1.005564690E1,1.422155857E0
2.256087710E1,-8.882488012E-1,1.008437729E1,1.211466074E0
2.257689860E1,-1.096544385E0,1.005085850E1,1.237802267E0
2.259292010E1,-9.145850539E-1,1.006043530E1,1.103726983E0
2.260894160E1,-5.626373887E-1,9.794678688E0,1.051054597E0
2.262496310E1,-3.256114423E-1,9.876082420E0,1.211466074E0
2.264098459E1,-3.303998411E-1,1.012986755E1,1.204283476E0
2.265700609E1,-9.074024558E-1,9.962273598E0,1.158793569E0
2.267302759E1,-1.431732655E0,9.564835548E0,1.067813993E0
2.268904909E1,-1.982398987E0,9.421183586E0,1.063025594E0
2.270507059E1,-2.432508945E0,9.533711433E0,8.930372596E-1
2.272109209E1,-2.497152328E0,9.861717224E0,8.523358107E-1
2.273711359E1,-2.111685991E0,1.003649330E1,5.913678408E-1
2.275313509E1,-1.728613615E0,9.792284966E0,6.679822803E-1
2.276915659E1,-1.443703651E0,9.619902611E0,5.530605912E-1
2.278520860E1,-1.546654344E0,9.423578262E0,7.541735172E-1
2.280123010E1,-1.699883223E0,9.514557838E0,7.254431248E-1
2.281725160E1,-2.073378563E0,9.739612579E0,8.331822157E-1
2.283327310E1,-2.051830769E0,9.655815125E0,6.919242740E-1
2.284929460E1,-2.027888775E0,9.560047150E0,7.757213712E-1
2.286531610E1,-1.965639591E0,9.605537415E0,8.044517636E-1
2.288133760E1,-1.960851192E0,9.567230225E0,7.206547260E-1
2.289735910E1,-1.517923832E0,9.581595421E0,8.092401624E-1
2.291338060E1,-1.594538331E0,9.691728592E0,7.374141216E-1
2.292940209E1,-1.714248419E0,9.871294022E0,6.847416759E-1
2.294542359E1,-1.630451322E0,9.588777542E0,5.219359994E-1
2.296144509E1,-1.503558636E0,9.615114212E0,6.153098345E-1
2.297746659E1,-1.549048543E0,9.610325813E0,5.913678408E-1
2.299348809E1,-1.556231141E0,9.502586365E0,5.698199868E-1
2.300950959E1,-1.544260144E0,9.382876396E0,5.578489900E-1
2.302553109E1,-1.788468719E0,9.287108421E0,5.027823448E-1
2.304155259E1,-2.250549555E0,9.425971985E0,4.213795066E-1
2.305757409E1,-2.329558372E0,9.761159897E0,3.495534360E-1
2.307359559E1,-2.233790159E0,9.952696800E0,2.585737705E-1
2.308961708E1,-1.984793186E0,9.914389610E0,3.567360640E-1
2.310563858E1,-1.987187386E0,9.519346237E0,5.386953950E-1
2.312166008E1,-2.128445387E0,9.162610054E0,6.272808313E-1
2.313768158E1,-2.418143749E0,9.071630478E0,7.350199223E-1
2.315370308E1,-2.288856745E0,8.999804497E0,6.344634295E-1
2.316972458E1,-1.845929503E0,9.155426979E0,5.746083856E-1
2.318574608E1,-1.599326730E0,9.176975250E0,6.248866320E-1
2.320176758E1,-1.395819545E0,8.528146744E0,7.302315235E-1
2.321778908E1,-1.189918280E0,7.857769966E0,4.764461517E-1
2.323381058E1,-1.146822572E0,8.022970200E0,2.274491638E-1
2.324983208E1,-1.692700624E0,8.525752068E0,2.394201756E-1
2.326585358E1,-1.814804912E0,9.160215378E0,4.165911078E-1
2.328187507E1,-1.537077546E0,9.560047150E0,2.298433632E-1
2.329789657E1,-1.661576033E0,9.840168953E0,-1.675941236E-2
2.331391807E1,-2.655169725E0,9.579200745E0,-3.184288144E-1
2.332997009E1,-3.718195200E0,9.921571732E0,-1.292868853E-1
2.334599159E1,-4.560954094E0,1.137724686E1,4.908113480E-1
2.336201309E1,-3.682282209E0,1.233253288E1,9.385270476E-1
2.337803459E1,-1.915361404E0,1.265575027E1,6.105214357E-1
2.339405609E1,-8.523358107E-1,1.323275280E1,-3.758896589E-1
2.341007758E1,-2.085349798E0,1.431972027E1,-2.873042040E-2
2.342609908E1,-2.633621931E0,1.420001030E1,2.250549644E-1
2.344212058E1,-3.275267839E0,1.402762794E1,9.600749016E-1
2.345814208E1,-3.531447411E0,1.427662468E1,1.058237195E0
2.347416358E1,-3.138798475E0,1.449210262E1,9.289502501E-1
2.349018508E1,-3.373430252E0,1.530134296E1,1.098938584E0
2.350620658E1,-1.601720929E0,1.412339592E1,6.751648784E-1
2.352222808E1,-4.381389022E-1,1.382890892E1,5.913678408E-1
2.353824958E1,-1.556231081E-1,1.332612705E1,1.034295082E0
2.355427108E1,-4.812345505E-1,1.315374374E1,1.453280449E0
2.357029258E1,-8.810662031E-1,1.302206326E1,1.482010841E0
2.358631407E1,-1.211466074E0,1.329260826E1,9.672574997E-1
2.360233557E1,-1.312022567E0,1.287362289E1,8.331822157E-1
2.361835707E1,-5.602431893E-1,1.162145519E1,1.177947283E0
2.363437857E1,5.099649429E-1,9.689333916E0,1.443703651E0
2.365040007E1,1.211466074E0,8.032546997E0,2.020706177E0
2.366642157E1,1.450886250E0,7.022193432E0,1.654393315E0
2.368244307E1,1.278503656E0,6.883329868E0,1.027112484E0
2.369846457E1,7.829039693E-1,7.211335659E0,7.445967197E-1
2.371448607E1,4.405331016E-1,7.678205013E0,2.394201756E-1
2.373050757E1,1.292868853E-1,8.197746277E0,4.381389022E-1
2.374652906E1,4.932055473E-1,8.571242332E0,7.948749661E-1
2.376255056E1,7.182605267E-1,8.516175270E0,8.355764151E-1
2.377857206E1,8.116343617E-1,8.511386871E0,5.027823448E-1
2.379459356E1,8.643068075E-1,8.398859978E0,4.525041282E-1
2.381061506E1,1.675941229E0,8.082824707E0,3.303998411E-1
2.382663656E1,1.695094824E0,8.101978302E0,2.537853718E-1
2.384265806E1,1.723825216E0,8.374917984E0,8.068459630E-1
2.385867956E1,2.274491549E0,8.997409821E0,1.350329757E0
2.387470106E1,2.159569979E0,9.871294022E0,1.460463047E0
2.389072256E1,1.920149803E0,1.020648193E1,1.268926859E0
2.390674406E1,1.565807939E0,9.979032516E0,1.436521053E0
2.392276556E1,1.197100878E0,9.940725327E0,1.326387763E0
2.393878705E1,9.983820915E-1,8.707711220E0,1.120486379E0
2.395480855E1,6.129156351E-1,8.599972725E0,1.357512355E0
2.397083005E1,5.123591423E-1,8.489839554E0,1.381454349E0
2.398685155E1,2.849099934E-1,8.746018410E0,1.630451322E0
2.400287305E1,3.543418646E-1,8.494627953E0,1.414973259E0
2.401889455E1,1.292868853E-1,8.889671326E0,1.474828243E0
2.403491605E1,2.106897533E-1,8.482656479E0,1.575384736E0
2.405093755E1,1.651999205E-1,8.283937454E0,1.589749932E0
2.406695905E1,4.381389022E-1,7.876923561E0,1.426944256E0
2.408298055E1,5.171475410E-1,7.407660007E0,1.323993564E0
2.409900204E1,6.009446383E-1,7.137115479E0,1.283292055E0
2.411502354E1,6.392518282E-1,6.916848660E0,1.256955862E0
2.413101453E1,7.158663273E-1,7.003039837E0,1.455674648E0
2.414703602E1,7.038952708E-1,7.089231014E0,1.328781962E0
2.416305752E1,7.158663273E-1,7.196970463E0,1.405396342E0
2.417907902E1,6.584054828E-1,7.247248650E0,1.601720929E0
2.419510052E1,5.841852427E-1,7.357381821E0,1.345541358E0
2.421112202E1,3.375824392E-1,7.381323814E0,1.343147159E0
2.422714352E1,4.189853072E-1,7.630321026E0,1.374271750E0
2.424316502E1,4.668693244E-1,8.061277390E0,1.326387763E0
2.425918652E1,4.884171486E-1,8.518569946E0,1.223437071E0
2.427520802E1,5.674257874E-1,9.090784073E0,1.242590666E0
2.429122952E1,6.177040339E-1,9.775525093E0,1.735796213E0
2.430725102E1,5.578489900E-1,9.967061996E0,1.266532660E0
2.432327252E1,6.344634295E-1,9.962273598E0,1.039083481E0
2.433926350E1,2.442085743E-1,9.933543205E0,8.236053586E-1
2.435528500E1,-2.130839527E-1,9.536105156E0,9.648633003E-1
2.437130650E1,-4.955997467E-1,8.875306129E0,1.082179189E0
2.438735851E1,-6.512228847E-1,8.528146744E0,9.074024558E-1
2.440334949E1,-4.261679053E-1,8.889671326E0,1.807622313E0
2.441937099E1,5.171475410E-1,9.653421402E0,1.551442742E0
2.443539249E1,8.307880163E-1,1.160469532E1,1.503558636E0
2.445141399E1,2.825157940E-1,1.384806252E1,1.798045516E0
2.446743549E1,4.070142806E-1,1.470279217E1,8.307880163E-1
2.448345699E1,-2.418143749E-1,1.392946529E1,1.240196466E0
2.449947849E1,-1.094150186E0,1.307952404E1,1.556231141E0
2.451549999E1,-1.031900883E0,1.181538582E1,1.812410712E0
2.453152149E1,-1.072602391E0,1.189439392E1,1.690306425E0
2.454754298E1,-5.051765442E-1,1.184650993E1,1.230619669E0
2.456356448E1,8.164227605E-1,1.095586681E1,3.782838583E-1
2.457958598E1,1.374271750E0,1.001255131E1,9.337386489E-2
2.459560748E1,2.238578558E0,8.832210541E0,-1.053448766E-1
2.461159846E1,2.446874142E0,8.935160637E0,-7.900865376E-2
2.462761996E1,1.750161409E0,9.380482674E0,3.854664862E-1
2.464364146E1,6.512228847E-1,9.507374763E0,3.447650373E-1
2.465966296E1,3.878606856E-1,9.217676163E0,5.123591423E-1
2.467568446E1,7.350199223E-1,8.470685959E0,5.147533417E-1
2.469170596E1,1.417367458E0,7.558494568E0,1.771709323E-1
2.470772746E1,1.788468719E0,7.003039837E0,8.619125932E-2
2.472374896E1,1.517923832E0,6.718130112E0,6.943184882E-2
2.473977046E1,8.858546019E-1,6.804321289E0,1.364694983E-1
2.475579196E1,5.674257874E-1,7.220912457E0,4.692635238E-1
2.477181345E1,2.801215947E-1,8.592789650E0,5.554547906E-1
2.478783495E1,5.027823448E-1,9.718064308E0,9.026140571E-1
2.480382594E1,6.105214357E-1,9.931148529E0,2.992752194E-1
2.481984743E1,1.139639974E0,8.777143478E0,4.070143029E-2
2.483586893E1,1.314416766E0,7.905653954E0,1.891419291E-1
2.485189043E1,1.412579060E0,7.328651428E0,5.770025849E-1
2.486791193E1,8.259995580E-1,7.297526836E0,9.792284966E-1
2.488393343E1,8.212111592E-1,7.237671852E0,1.074996591E0
2.489995493E1,9.792284966E-1,7.862558365E0,1.256955862E0
2.491597643E1,1.376665950E0,7.419631004E0,8.475474119E-1
2.493199793E1,1.426944256E0,6.792350292E0,8.212111592E-1
2.494801943E1,1.618480325E0,6.370970726E0,7.829039693E-1
2.496404093E1,7.924807668E-1,7.568071365E0,7.517793179E-1
2.498006242E1,4.692635238E-1,8.695740700E0,1.010353088E0
2.499608392E1,4.046200812E-1,9.366117477E0,1.620874524E0
2.501210542E1,5.195417404E-1,1.097502041E1,1.582567334E0
2.502809641E1,1.137245774E0,1.059434223E1,1.271321058E0
2.504411790E1,2.444479942E0,9.404424667E0,6.009446383E-1
2.506013940E1,3.222595453E0,8.255207062E0,7.685387731E-1
2.507616090E1,4.376600742E0,8.070854187E0,1.187524080E0
2.509218240E1,3.201047659E0,8.899248123E0,1.010353088E0
2.510820390E1,2.631227732E0,8.870517731E0,1.213860273E0
2.512422540E1,2.341529369E0,7.575253963E0,1.063025594E0
2.514024690E1,1.201889277E0,8.248024940E0,1.551442742E0
2.515626840E1,1.915361285E-1,8.034940720E0,1.728613615E0
2.517228990E1,3.926490843E-1,8.269572258E0,1.740584612E0
2.518831140E1,7.422025502E-2,9.042900085E0,2.348711967E0
2.520433290E1,-9.097966552E-2,8.767566681E0,2.430114746E0
2.522035440E1,8.858546019E-1,8.010998726E0,1.853112102E0
2.523637589E1,9.145850539E-1,7.623138428E0,2.169146776E0
2.525239739E1,1.604115129E0,6.136339188E0,1.977610588E0
2.526841889E1,9.696516991E-1,8.080430984E0,2.664746523E0
2.528444039E1,9.337386489E-1,8.985439301E0,2.647987127E0
2.530046189E1,1.604115129E0,9.337387085E0,2.363077164E0
2.531648339E1,3.615244627E-1,1.073320580E1,3.562572241E0
2.533250489E1,-1.347935557E0,1.167412758E1,4.649539471E0
2.534852639E1,-2.377442360E0,1.349611473E1,5.382165432E0
2.536454789E1,-3.643975019E0,1.555273438E1,6.409277916E0
2.538056939E1,-4.374206543E0,1.639070511E1,6.014234543E0
2.539659088E1,-4.778826714E0,1.436760426E1,4.742913723E0
2.541261238E1,-4.666299343E0,1.278264332E1,4.936843872E0
2.542863388E1,-4.541800499E0,1.324232960E1,6.002263546E0
2.544465538E1,-4.316745758E0,1.332852077E1,6.694188118E0
2.546067688E1,-4.027047157E0,1.257195282E1,6.986280441E0
2.547669838E1,-3.655946016E0,1.269166279E1,6.318298340E0
2.549271988E1,-3.160346270E0,1.251688671E1,5.825092793E0
2.550874138E1,-3.268085241E0,1.210029507E1,5.470750809E0
2.552476288E1,-3.454833031E0,1.017056847E1,4.668693542E0
2.554078438E1,-4.168305397E0,7.448361397E0,4.577713490E0
2.555680588E1,-4.726154327E0,6.339846134E0,4.472368717E0
2.557282737E1,-4.604049683E0,6.057330132E0,4.757278919E0
2.558881836E1,-4.201824188E0,6.366182327E0,4.656722069E0
2.560483986E1,-3.397372246E0,6.833051682E0,4.297592163E0
2.562086136E1,-2.628833532E0,7.094019413E0,4.237737179E0
2.563688285E1,-2.214636564E0,7.338228226E0,3.608062029E0
2.565290435E1,-2.104503393E0,7.484274387E0,3.699041605E0
2.566892585E1,-1.874659896E0,7.433996201E0,3.562572241E0
2.568494735E1,-2.059013367E0,7.682993412E0,3.775655985E0
2.570096885E1,-2.197877169E0,7.936778545E0,3.895366192E0
2.571702087E1,-2.389413357E0,8.202534676E0,3.813963413E0
2.573304237E1,-2.410961151E0,8.214506149E0,3.828328609E0
2.574906386E1,-2.255337954E0,7.977479935E0,3.545812607E0
2.576508536E1,-2.025494576E0,8.001421928E0,3.411737442E0
2.578110686E1,-2.032677174E0,7.869740963E0,3.562572241E0
2.579712836E1,-2.070984364E0,8.389283180E0,3.581725836E0
2.581314986E1,-2.152387381E0,8.592789650E0,3.603273630E0
2.582917136E1,-1.642422318E0,8.741230011E0,3.763684988E0
2.584519286E1,-2.592920542E0,8.801085472E0,3.416525841E0
2.586121436E1,-2.846705914E0,8.674192429E0,3.258508444E0
2.587723586E1,-3.797203779E0,8.590395927E0,2.791639090E0
2.589325736E1,-3.011905670E0,9.006986618E0,2.856282711E0
2.590918730E1,-9.169792533E-1,9.165003777E0,3.943250179E0
2.592520880E1,-2.018311977E0,9.356540680E0,2.997540474E0
2.594123030E1,-1.632845521E0,9.356540680E0,2.889801502E0
2.595725180E1,-9.959878922E-1,9.069235802E0,2.925714493E0
2.597327330E1,-1.017535686E0,9.409213066E0,2.822763920E0
2.598929480E1,-1.110909581E0,9.531316757E0,2.509123325E0
2.600531630E1,-1.022324085E0,9.598354340E0,2.291250944E0
2.602133780E1,-2.841917515E0,1.002931118E1,2.305616140E0
2.603735930E1,-1.529894829E0,1.011071396E1,2.645592928E0
2.605341131E1,-1.367089152E0,9.734824181E0,2.628833532E0
2.606943281E1,-1.778891921E0,1.048420906E1,2.640804529E0
2.608545431E1,-1.929726601E0,1.048181534E1,2.724601507E0
2.610147581E1,-2.037465572E0,1.018732834E1,2.255337954E0
2.611749731E1,-2.023100376E0,9.483432770E0,1.807622313E0
2.613351881E1,-1.821987510E0,8.796297073E0,1.929726601E0
2.614954031E1,-1.929726601E0,8.202534676E0,2.061407566E0
2.616556181E1,-1.247379065E0,7.785943985E0,2.437297344E0
2.618158330E1,-2.585737705E-1,8.099584579E0,2.185906172E0
2.619760480E1,2.226607651E-1,9.878476143E0,1.910573006E0
2.621362630E1,9.600749016E-1,1.167652130E1,1.762132406E0
2.622964780E1,7.374141216E-1,1.264377880E1,2.116474390E0
2.624566930E1,1.165976286E0,1.345062542E1,1.185129881E0
2.626169080E1,5.506663918E-1,1.147780323E1,7.493851185E-1
2.627771230E1,-6.464344263E-2,8.942343712E0,1.381454349E0
2.629373380E1,-8.379705995E-2,7.347805023E0,1.929726601E0
2.630975530E1,-7.110779285E-1,7.036558628E0,2.334346771E0
2.632577680E1,-1.036689281E0,7.522581577E0,2.245761156E0
2.634179830E1,-1.350329757E0,8.101978302E0,2.149993181E0
2.635781980E1,-1.635239720E0,8.978256226E0,1.829170108E0
2.637384130E1,-2.013523579E0,9.871294022E0,1.498770237E0
2.638986279E1,-2.080561161E0,1.083615685E1,1.331176162E0
2.640588429E1,-1.496376038E0,1.120725822E1,1.182735682E0
2.642190579E1,-7.062895298E-1,1.128626728E1,1.247379065E0
2.643792729E1,-4.788403399E-3,1.048181534E1,1.173158884E0
2.645394879E1,3.543418646E-1,9.758766174E0,1.233013868E0
2.646997029E1,3.064578176E-1,9.447520256E0,1.280897856E0
2.648599179E1,1.963245422E-1,9.351752281E0,1.115697980E0
2.650201329E1,2.681505978E-1,9.624691010E0,1.237802267E0
2.651803479E1,1.795651317E-1,9.806650162E0,1.051054597E0
2.653405629E1,2.681505978E-1,9.928754807E0,7.613561153E-1
2.655007778E1,1.915361285E-1,1.000536919E1,9.600749016E-1
2.656609928E1,2.873042040E-2,1.026633644E1,1.273715258E0
2.658212078E1,1.987187415E-1,1.039083576E1,1.189918280E0
2.659814228E1,1.987187415E-1,1.031661510E1,1.139639974E0
2.661416378E1,-6.464344263E-2,1.032619190E1,1.249773264E0
2.663018528E1,-2.753331959E-1,1.029985619E1,1.276109457E0
2.664620678E1,-3.902548850E-1,1.005085850E1,1.156399369E0
2.666222828E1,-2.513911724E-1,9.777919769E0,1.484405041E0
2.667824978E1,-5.985504389E-2,9.502586365E0,1.642422318E0
2.669427128E1,2.035071403E-1,9.244012833E0,1.434126854E0
2.671029277E1,1.292868853E-1,9.279925346E0,1.369483352E0
2.672631427E1,-1.963245422E-1,9.593565941E0,1.302445769E0
2.674233577E1,-3.351882398E-1,9.777919769E0,1.079784989E0
2.675835727E1,-1.460463107E-1,9.909601212E0,7.709329724E-1
2.677437877E1,-3.064578176E-1,1.018732834E1,7.685387731E-1
2.679040027E1,-3.088520169E-1,1.028549004E1,6.679822803E-1
2.680642177E1,-7.422025204E-1,9.991003990E0,6.679822803E-1
2.682244327E1,-1.161187768E0,9.883264542E0,7.350199223E-1
2.683846477E1,-1.386242747E0,9.715670586E0,6.967126727E-1
2.685448627E1,-1.666364431E0,9.593565941E0,6.200982332E-1
2.687050777E1,-1.671152830E0,9.689333916E0,8.810662031E-1
2.688652926E1,-1.510741234E0,9.524134636E0,8.523358107E-1
2.690255076E1,-1.561019540E0,9.433155060E0,8.643068075E-1
2.691857226E1,-1.369483352E0,9.495404243E0,8.259995580E-1
2.693459376E1,-1.460463047E0,9.835380554E0,8.283938169E-1
2.695061526E1,-1.086967587E0,9.880870819E0,6.488286853E-1
2.696663676E1,-1.395819545E0,9.952696800E0,6.320692301E-1
2.698265826E1,-1.841141105E0,1.023521233E1,7.230489254E-1
2.699877131E1,-1.860294700E0,1.020169353E1,5.961562395E-1
2.701479281E1,-1.261744261E0,9.399636269E0,5.889736414E-1
2.703078379E1,-1.247379065E0,9.224859238E0,6.344634295E-1
2.704680529E1,-1.422155857E0,9.121908188E0,7.350199223E-1
2.706282679E1,-1.424550056E0,9.224859238E0,6.607996821E-1
2.707884829E1,-1.640028119E0,9.200917244E0,5.434837937E-1
2.709486979E1,-1.544260144E0,9.497797966E0,5.482721925E-1
2.711089129E1,-1.501164436E0,9.258378029E0,7.062895298E-1
2.712691279E1,-1.520318031E0,8.681375504E0,6.799532771E-1
2.714293428E1,-1.482010841E0,8.106766701E0,7.062895298E-1
2.715895578E1,-1.438915253E0,7.584830761E0,5.219359994E-1
2.717497728E1,-1.438915253E0,7.860164165E0,4.285621047E-1
2.719099878E1,-1.728613615E0,8.662221909E0,3.184288144E-1
2.720702028E1,-1.980004787E0,9.349357605E0,4.165911078E-1
2.722304178E1,-1.570596337E0,9.464279175E0,1.819593310E-1
2.723906328E1,-1.192312479E0,9.567230225E0,6.224924326E-2
2.725508478E1,-1.675941229E0,9.445125580E0,3.806780577E-1
2.727110628E1,-1.546654344E0,8.765172005E0,6.177040339E-1
2.728712778E1,-1.235408068E0,8.238448143E0,5.626373887E-1
2.730314928E1,-9.935936928E-1,8.777143478E0,6.967126727E-1
2.731914026E1,-1.221042871E0,1.025675964E1,6.081272364E-1
2.733516176E1,-2.154781580E0,1.101811600E1,4.668693244E-1
2.735118326E1,-2.983175278E0,1.165736771E1,6.200982332E-1
2.736720475E1,-3.605667830E0,1.211226654E1,8.068459630E-1
2.738322625E1,-3.655946016E0,1.219845772E1,7.589619160E-1
2.739924775E1,-3.928884983E0,1.271560478E1,1.053448796E0
2.741526925E1,-2.815581083E0,1.320881081E1,8.116343617E-1
2.743129075E1,-2.312798738E0,1.317050362E1,8.858546019E-1
2.744731225E1,-2.288856745E0,1.344344234E1,1.146822572E0
2.746333375E1,-2.992752075E0,1.447773743E1,1.580173135E0
2.747935525E1,-3.809175014E0,1.546893692E1,1.716642618E0
2.749534623E1,-3.555389643E0,1.670673943E1,1.414973259E0
2.751136773E1,-2.983175278E0,1.846408272E1,6.967126727E-1
2.752738923E1,-1.041477680E0,1.778413010E1,4.429273009E-1
2.754341073E1,-2.609679997E-1,1.761414146E1,2.992752194E-1
2.755943223E1,5.003881454E-1,1.589989376E1,4.812345505E-1
2.757545373E1,5.746084079E-2,1.351287460E1,8.523358107E-1
2.759147523E1,4.165911078E-1,1.084094524E1,1.486799240E0
2.760749672E1,9.481038451E-1,8.798690796E0,1.501164436E0
2.762351822E1,1.127668977E0,7.548917770E0,1.417367458E0
2.763953972E1,1.086967587E0,6.653486729E0,1.580173135E0
2.765556122E1,1.077390790E0,6.093243122E0,9.241618514E-1
2.767158272E1,1.070208192E0,5.621585369E0,6.368576288E-1
2.768760422E1,6.919242740E-1,5.305551052E0,4.333505034E-1
2.770362572E1,4.525041282E-1,5.724536419E0,2.106897533E-1
2.771964722E1,6.248866320E-1,6.890512466E0,2.226607651E-1
2.773566872E1,6.105214357E-1,7.838616371E0,-2.633621916E-2
2.775169022E1,1.041477680E0,8.003816605E0,-1.149216816E-1
2.776771171E1,1.048660398E0,8.130708694E0,-1.364694983E-1
2.778373321E1,1.122880578E0,8.415618896E0,2.274491638E-1
2.779975471E1,1.189918280E0,7.726089001E0,3.040636182E-1
2.781577621E1,1.345541358E0,7.625532627E0,3.184288144E-1
2.783179771E1,1.747767210E0,8.331821442E0,3.854664862E-1
2.784781921E1,2.035071373E0,8.755595207E0,4.525041282E-1
2.786384071E1,2.027888775E0,9.706093788E0,4.692635238E-1
2.787986221E1,1.877054095E0,1.068053341E1,4.213795066E-1
2.789588371E1,1.821987510E0,1.133893967E1,4.716577232E-1
2.791190521E1,1.074996591E0,1.245703125E1,7.709329724E-1
2.792792670E1,9.145850539E-1,1.197579670E1,9.169792533E-1
2.794394820E1,7.589619160E-1,1.087207031E1,1.003170490E0
2.796000022E1,6.727706790E-1,1.011071396E1,1.012747288E0
2.797602172E1,5.841852427E-1,9.806650162E0,9.313444495E-1
2.799204322E1,1.355118155E0,8.971074104E0,8.283938169E-1
2.800806472E1,4.788403511E-1,9.521739960E0,9.768342972E-1
2.802408622E1,7.733271718E-1,9.416395187E0,9.097966552E-1
2.804010772E1,4.979939461E-1,9.162610054E0,1.156399369E0
2.805612921E1,2.322375625E-1,8.887276649E0,1.156399369E0
2.807218123E1,2.394201700E-3,8.652645111E0,1.144428372E0
2.808820273E1,-8.858546615E-2,8.482656479E0,9.528923035E-1
2.810422423E1,-1.795651317E-1,8.236053467E0,1.113303781E0
2.812024573E1,1.436520964E-1,8.061277390E0,1.015141487E0
2.813626723E1,3.184288144E-1,7.692570210E0,9.959878922E-1
2.815228873E1,2.801215947E-1,7.067683220E0,9.504981041E-1
2.816834074E1,3.471592367E-1,6.986280441E0,9.768342972E-1
2.818436224E1,3.423708379E-1,6.955155849E0,1.036689281E0
2.820038374E1,5.027823448E-1,6.947973251E0,1.041477680E0
2.821640524E1,7.110779285E-1,6.986280441E0,9.361328483E-1
2.823242674E1,7.206547260E-1,7.237671852E0,1.175553083E0
2.824844824E1,7.182605267E-1,7.723694801E0,1.197100878E0
2.826450025E1,6.967126727E-1,8.013393402E0,9.744400978E-1
2.828052175E1,6.919242740E-1,8.271966934E0,1.125274777E0
2.829654325E1,6.512228847E-1,8.437167168E0,8.595184088E-1
2.831256475E1,3.232172430E-1,8.650250435E0,9.959878922E-1
2.832858625E1,2.035071403E-1,8.760383606E0,8.427590132E-1
2.834460775E1,3.543418646E-1,8.813055992E0,7.469909191E-1
2.836062925E1,6.871358752E-1,9.516951561E0,1.211466074E0
2.837665075E1,1.458068848E0,1.016578007E1,7.134721279E-1
2.839270276E1,1.470039845E0,1.096304989E1,6.105214357E-1
2.840872426E1,1.345541358E0,1.211466026E1,3.280056417E-1
2.842474576E1,1.015141487E0,1.298375607E1,6.655880809E-1
2.844076726E1,8.307880163E-1,1.280179691E1,6.823474765E-1
2.845678876E1,4.213795066E-1,1.201410389E1,6.009446383E-1
2.847281026E1,-1.508347094E-1,1.086728191E1,8.020575643E-1
2.848883176E1,8.379705995E-2,9.876082420E0,2.968810201E-1
2.850485326E1,-4.429273009E-1,9.744400978E0,8.667010069E-1
2.852087476E1,-1.132457376E0,9.923966408E0,1.731007814E0
2.853689626E1,-9.050082564E-1,1.051054573E1,1.134851575E0
2.855294827E1,-1.101332754E-1,1.097023201E1,1.091755986E0
2.856896977E1,7.422025204E-1,1.126950741E1,4.285621047E-1
2.858499127E1,1.544260144E0,1.086728191E1,4.788403213E-2
2.860101277E1,1.795651317E0,9.811438560E0,-1.292868853E-1
2.861703427E1,1.448492050E0,8.731653214E0,2.154781483E-2
2.863305577E1,1.134851575E0,8.101978302E0,3.782838583E-1
2.864907727E1,1.046266198E0,8.008605003E0,5.482721925E-1
2.866512928E1,7.852981687E-1,7.999027729E0,6.320692301E-1
2.868115078E1,8.140285611E-1,8.415618896E0,7.015010715E-1
2.869717228E1,6.320692301E-1,9.047688484E0,2.633621991E-1
2.871319378E1,6.895300746E-1,9.074024200E0,2.920926213E-1
2.872921528E1,6.392518282E-1,9.109937668E0,4.860229492E-1
2.874526730E1,6.560112834E-1,8.877699852E0,5.530605912E-1
2.876128879E1,4.764461517E-1,8.659827232E0,2.849099934E-1
2.877731029E1,1.053448796E0,8.410830498E0,6.631938815E-1
2.879333179E1,1.005564690E0,8.633491516E0,3.040636182E-1
2.880935329E1,1.436521053E0,8.724471092E0,6.536170840E-1
2.882537479E1,1.422155857E0,8.983044624E0,5.147533417E-1
2.884139629E1,9.361328483E-1,9.351752281E0,3.711012602E-1
2.885741779E1,8.092401624E-1,9.234436035E0,4.908113480E-1
2.887343929E1,2.896983922E-1,9.447520256E0,7.876923680E-1
2.888946079E1,3.663128614E-1,9.028534889E0,6.631938815E-1
2.890548229E1,3.471592367E-1,8.317456245E0,1.170764685E0
2.892153430E1,7.805097699E-1,7.714118004E0,1.254561663E0
2.893755580E1,1.110909581E0,7.297526836E0,1.247379065E0
2.895357730E1,1.532289028E0,7.335834026E0,1.405396342E0
2.896959880E1,2.020706177E0,7.912836552E0,9.050082564E-1
2.898562030E1,1.572990537E0,8.707711220E0,7.805097699E-1
2.900164180E1,6.296750307E-1,9.320627213E0,5.937620401E-1
2.901766330E1,1.165976286E0,8.805873871E0,8.571242094E-1
2.903368480E1,7.302315235E-1,8.348581314E0,1.213860273E0
2.904970630E1,7.900865674E-1,8.473079681E0,1.663970232E0
2.906575831E1,1.872265697E0,7.814674377E0,1.877054095E0
2.908177981E1,1.640028119E0,9.009381294E0,1.865083098E0
2.909780131E1,1.826775908E0,9.919178009E0,1.443703651E0
2.911382281E1,1.750161409E0,1.039083576E1,1.285686255E0
2.912984431E1,1.242590666E0,1.086967564E1,1.711854219E0
2.914586581E1,1.424550056E0,1.028309631E1,2.035071373E0
2.916188730E1,1.812410712E0,9.679757118E0,2.968810081E0
2.917790880E1,3.014299870E0,8.346187592E0,2.331952572E0
2.919393030E1,3.572149038E0,7.769184589E0,1.884236693E0
2.920995180E1,3.703830004E0,6.835445881E0,1.335964561E0
2.922597330E1,2.420537949E0,6.399701118E0,1.156399369E0
2.924199480E1,1.139639974E0,6.871358871E0,1.477222443E0
2.925801630E1,3.184288144E-1,7.584830761E0,1.963245392E0
2.927403780E1,1.101332754E-1,7.606379032E0,1.946485996E0
2.929005930E1,8.810662031E-1,7.493851185E0,2.171540976E0
2.930611131E1,2.142810583E0,6.200982571E0,2.152387381E0
2.932213281E1,1.515529633E0,7.024587631E0,2.657563925E0
2.933815431E1,1.242590666E0,7.228095055E0,2.786850691E0
2.935417581E1,1.082179189E0,7.122750282E0,3.251325846E0
2.937019731E1,6.536170840E-1,9.006986618E0,3.603273630E0
2.938621881E1,1.771709323E-1,1.152089882E1,4.596867085E0
2.940224031E1,-1.067813993E0,1.445619011E1,6.971915245E0
2.941829233E1,-2.501940727E0,1.555752277E1,7.395689011E0
2.943431382E1,-3.356670856E0,1.536359215E1,6.323086739E0
2.945033532E1,-4.096478939E0,1.465730286E1,5.968744755E0
2.946635682E1,-4.091690540E0,1.258631802E1,5.245696068E0
2.948237832E1,-3.287238836E0,1.193988419E1,5.169081688E0
2.949839982E1,-2.432508945E0,1.248097324E1,6.229712963E0
2.951445184E1,-2.528276920E0,1.355118179E1,6.864176273E0
2.953047334E1,-2.518700123E0,1.391270638E1,6.619967937E0
2.954649484E1,-1.731007814E0,1.360145950E1,5.573701382E0
2.956251633E1,-1.845929503E0,1.385524559E1,4.328716755E0
2.957853783E1,-2.430114746E0,1.311543655E1,3.588908434E0
2.959455933E1,-2.944868088E0,1.101811600E1,3.904942989E0
2.961058083E1,-3.282450438E0,8.504204750E0,4.149151325E0
2.962660233E1,-3.995922565E0,6.933608055E0,4.467580318E0
2.964262383E1,-4.510675907E0,6.102819920E0,4.757278919E0
2.965864533E1,-4.168305397E0,5.442020416E0,4.582501888E0
2.967469735E1,-3.224989653E0,5.123591423E0,4.132391930E0
2.969071884E1,-2.212242365E0,6.002263546E0,3.596091032E0
2.970674034E1,-1.580173135E0,7.244854450E0,3.469198227E0
2.972276184E1,-1.278503656E0,7.843404770E0,3.380612850E0
2.973878334E1,-1.029506683E0,7.989450932E0,3.371036053E0
2.975480484E1,-1.204283476E0,8.044517517E0,3.691859007E0
2.977082634E1,-1.647210717E0,8.169015884E0,3.897760391E0
2.978684784E1,-1.810016513E0,8.252813339E0,3.995922565E0
2.980286934E1,-1.726219416E0,8.583212852E0,3.907337189E0
2.981892135E1,-1.649604917E0,8.669404030E0,3.751713991E0
2.983494285E1,-1.776497602E0,8.743624687E0,3.543418407E0
2.985096435E1,-1.845929503E0,8.611943245E0,3.416525841E0
2.986698585E1,-1.877054095E0,8.418013573E0,3.174711466E0
2.988300735E1,-1.893813491E0,8.659827232E0,3.466804028E0
2.989902885E1,-1.570596337E0,8.738836288E0,3.531447411E0
2.991505035E1,-2.008735180E0,8.832210541E0,3.287238836E0
2.993107185E1,-2.324769735E0,8.688557625E0,3.220201254E0
2.994709335E1,-1.905784607E0,8.865729332E0,3.730166197E0
2.996311485E1,-1.766920805E0,8.757989883E0,3.608062029E0
2.997913634E1,-1.956062794E0,9.229647636E0,3.222595453E0
2.999518836E1,-1.956062794E0,9.342175484E0,2.667140722E0
3.001120986E1,-2.116474390E0,9.385271072E0,2.403778553E0
3.002723136E1,-7.589619160E-1,9.313444138E0,2.865859509E0
3.004325286E1,-1.312022567E0,9.291896820E0,2.671929121E0
3.005927436E1,-1.541865945E0,9.943120003E0,2.822763920E0
3.007529586E1,-1.726219416E0,1.040280628E1,2.899378300E0
3.009131736E1,-1.091755986E0,1.026633644E1,2.954444885E0
3.010733885E1,-1.484405041E0,1.024239445E1,3.090914488E0
3.012336035E1,-1.089361787E0,9.962273598E0,2.894589901E0
3.013938185E1,-1.161187768E0,9.950302124E0,3.023876667E0
3.015543387E1,-7.158663273E-1,9.560047150E0,2.992752075E0
3.017145537E1,-1.271321058E0,9.234436035E0,2.861071110E0
3.018747687E1,-1.398213744E0,8.662221909E0,2.274491549E0
3.020349837E1,-9.864110947E-1,8.506598473E0,2.272097349E0
3.021951987E1,-1.130063176E0,8.978256226E0,2.284068346E0
3.023557188E1,-6.153098345E-1,9.461885452E0,2.164358377E0
3.025159338E1,-1.060631394E0,1.020408726E1,2.346317768E0
3.026761488E1,-8.667010069E-1,1.007480049E1,2.602497339E0
3.028363638E1,-1.256955862E0,9.449913979E0,1.656787634E0
3.029965788E1,-6.991068721E-1,9.004592896E0,1.625662923E0
3.031567938E1,-7.565677166E-1,9.576807022E0,1.924938202E0
3.033170088E1,1.915361360E-2,1.048899746E1,1.833958507E0
3.034772238E1,-1.221042871E-1,1.131260300E1,2.375048161E0
3.036374387E1,-5.219359994E-1,1.177947235E1,3.208230138E-1
3.037976537E1,2.298433632E-1,1.066616821E1,1.927332401E0
3.039578687E1,4.979939461E-1,9.574412346E0,7.829039693E-1
3.041180837E1,8.643068075E-1,9.852140427E0,1.733402014E0
3.042782987E1,5.578489900E-1,1.021366405E1,9.528923035E-1
3.044385137E1,-9.576806799E-3,1.002452278E1,1.177947283E0
3.045987287E1,-1.173158810E-1,9.902418137E0,1.077390790E0
3.047589437E1,-6.943184733E-1,9.428366661E0,1.266532660E0
3.049191587E1,-5.051765442E-1,8.923190117E0,1.572990537E0
3.050793737E1,-2.801215947E-1,8.686163902E0,1.620874524E0
3.052395886E1,3.950432837E-1,8.231265068E0,1.376665950E0
3.054001088E1,1.108515382E0,8.865729332E0,1.127668977E0
3.055603238E1,1.426944256E0,9.457097054E0,7.445967197E-1
3.057205388E1,1.513135433E0,1.002212811E1,6.248866320E-1
3.058807538E1,1.012747288E0,1.037647057E1,7.469909191E-1
3.060409688E1,9.576806799E-3,1.059913063E1,9.552865028E-1
3.062011838E1,-6.919242740E-1,1.046984386E1,9.959878922E-1
3.063613988E1,-1.213860273E0,1.006282997E1,8.643068075E-1
3.065216137E1,-1.213860273E0,9.955090523E0,8.810662031E-1
3.066818287E1,-7.876923680E-1,9.998186111E0,9.720458984E-1
3.068420437E1,-6.584054828E-1,1.008198357E1,1.177947283E0
3.070022587E1,-9.552865028E-1,1.018493366E1,1.412579060E0
3.071624737E1,-1.201889277E0,9.900024414E0,1.304839969E0
3.073226887E1,-1.264138460E0,9.598354340E0,1.264138460E0
3.074829037E1,-1.323993564E0,9.423578262E0,1.201889277E0
3.076431187E1,-1.125274777E0,9.301473618E0,1.043871999E0
3.078033337E1,-9.504981041E-1,9.473855972E0,7.852981687E-1
3.079635487E1,-8.906430602E-1,9.962273598E0,6.224924326E-1
3.081237637E1,-1.048660398E0,1.018972206E1,6.153098345E-1
3.082839786E1,-1.185129881E0,1.010592556E1,7.230489254E-1
3.084441936E1,-1.594538331E0,9.928754807E0,9.888052940E-1
3.086047138E1,-1.572990537E0,9.811438560E0,1.005564690E0
3.087649288E1,-1.582567334E0,9.493009567E0,9.217676520E-1
3.089251438E1,-1.357512355E0,9.557653427E0,9.074024558E-1
3.090853588E1,-1.477222443E0,9.677363396E0,8.140285611E-1
3.092455738E1,-1.285686255E0,9.686940193E0,7.924807668E-1
3.094057888E1,-1.235408068E0,9.770736694E0,7.038952708E-1
3.095660037E1,-1.316810966E0,9.849745750E0,6.536170840E-1
3.097262187E1,-1.350329757E0,9.830592155E0,5.937620401E-1
3.098864337E1,-1.297657371E0,9.495404243E0,5.865794420E-1
3.100466487E1,-1.158793569E0,9.327810287E0,6.823474765E-1
3.102068637E1,-1.290474772E0,9.184157372E0,4.908113480E-1
3.103673839E1,-1.369483352E0,9.414001465E0,4.668693244E-1
3.105275988E1,-1.774103403E0,9.557653427E0,2.825157940E-1
3.106878138E1,-1.975216389E0,9.732429504E0,4.285621047E-1
3.108480288E1,-1.802833915E0,9.583989143E0,4.548983276E-1
3.110082438E1,-2.042253971E0,9.277531624E0,7.517793179E-1
3.111684588E1,-2.281674147E0,9.088389397E0,6.416460276E-1
3.113289790E1,-1.975216389E0,8.992621422E0,6.272808313E-1
3.114891940E1,-1.723825216E0,9.488221169E0,4.405331016E-1
3.116494090E1,-1.731007814E0,1.002691650E1,4.548983276E-1
3.118096240E1,-1.960851192E0,9.562441826E0,4.716577232E-1
3.119698389E1,-1.498770237E0,8.959102631E0,4.429273009E-1
3.121300539E1,-1.074996591E0,9.066842079E0,6.392518282E-1
3.122902689E1,-1.304839969E0,9.311050415E0,9.145850539E-1
3.124504839E1,-1.122880578E0,9.184157372E0,7.062895298E-1
3.126106989E1,-8.140285611E-1,8.588001251E0,3.663128614E-1
3.127709139E1,-3.088520169E-1,8.822632790E0,3.280056417E-1
3.129311289E1,-3.160346150E-1,9.481039047E0,-7.182605099E-3
3.130913439E1,-9.528923035E-1,1.023521233E1,-2.298433632E-1
3.132515589E1,-1.838746905E0,1.128866100E1,2.849099934E-1
3.134120790E1,-2.669534922E0,1.172919369E1,4.477157295E-1
3.135722940E1,-2.844311714E0,1.230380249E1,6.655880809E-1
3.137325090E1,-2.552218914E0,1.349132633E1,6.033388376E-1
3.138927240E1,-2.322375536E0,1.468842697E1,2.274491638E-1
3.140529390E1,-1.910573006E0,1.519599819E1,1.819593310E-1
3.142131540E1,-1.853112102E0,1.543062973E1,2.537853718E-1
3.143733690E1,-2.300827742E0,1.546893692E1,1.086967587E0
3.145335840E1,-1.398213744E0,1.507628822E1,1.740584612E0
3.146937990E1,-9.169792533E-1,1.576342392E1,1.685518026E0
3.148540140E1,-3.615244627E-1,1.675701714E1,1.019929886E0
3.150142289E1,7.805097699E-1,1.606030464E1,4.716577232E-1
3.151744439E1,1.168370485E0,1.496615505E1,9.576806426E-2
3.153346589E1,2.051830769E0,1.311064816E1,1.484405100E-1
3.154948739E1,1.692700624E0,1.162384892E1,5.722141862E-1
3.156550889E1,1.920149803E0,1.004367638E1,1.307234168E0
3.158153039E1,2.147598982E0,8.542511940E0,1.833958507E0
3.159755189E1,1.896207690E0,7.058106422E0,1.814804912E0
3.161357339E1,1.345541358E0,6.730101109E0,1.611297727E0
3.162959489E1,6.392518282E-1,7.038952827E0,1.577778935E0
3.164561638E1,2.394201756E-1,7.299921036E0,1.843535304E0
3.166163788E1,4.572925270E-1,7.927201748E0,1.532289028E0
3.167765938E1,5.267243981E-1,8.121131897E0,1.493981838E0
3.169368088E1,8.403648138E-1,8.810662270E0,1.501164436E0
3.170970238E1,1.450886250E0,9.610325813E0,8.212111592E-1
3.172572388E1,1.467645645E0,8.954314232E0,3.687070608E-1
3.174174538E1,2.051830769E0,8.846575737E0,5.650315881E-1
3.175776688E1,2.346317768E0,8.178592682E0,5.027823448E-1
3.177378838E1,2.410961151E0,8.410830498E0,6.847416759E-1
3.178980988E1,2.482787132E0,8.513781548E0,1.067813993E0
3.180586189E1,1.989581585E0,9.105149269E0,1.620874524E0
3.182188339E1,2.123656988E0,9.524134636E0,1.833958507E0
3.183781334E1,1.982398987E0,8.599972725E0,9.983820915E-1
3.185383484E1,1.321599364E0,8.726864815E0,1.074996591E0
3.186985634E1,1.115697980E0,8.556877136E0,1.230619669E0
3.188587784E1,1.053448796E0,8.394071579E0,1.106121182E0
3.190189934E1,6.919242740E-1,8.671798706E0,1.436521053E0
3.191792084E1,8.595184088E-1,8.453926086E0,1.505952835E0
3.193394234E1,7.685387731E-1,8.298302650E0,1.699883223E0
3.194996383E1,8.403648138E-1,8.216899872E0,1.632845521E0
3.196598533E1,7.326257229E-1,7.874529362E0,1.649604917E0
3.198200683E1,7.805097699E-1,7.527369976E0,1.510741234E0
3.199802833E1,6.416460276E-1,7.352593422E0,1.434126854E0
3.201404983E1,4.118026793E-1,7.405265808E0,1.513135433E0
3.203007133E1,4.285621047E-1,7.647080421E0,1.462857246E0
3.204609283E1,4.955997467E-1,7.843404770E0,1.273715258E0
3.206211433E1,5.195417404E-1,7.953537941E0,1.283292055E0
3.207813583E1,4.357447028E-1,8.061277390E0,1.429338455E0
3.209415733E1,5.578489900E-1,8.202534676E0,1.623268723E0
3.211017883E1,6.655880809E-1,8.303091049E0,1.470039845E0
3.212620032E1,5.267243981E-1,8.379706383E0,1.510741234E0
3.214222182E1,4.237737060E-1,8.494627953E0,1.628057122E0
3.215824332E1,3.758896589E-1,8.671798706E0,1.987187386E0
3.217426482E1,3.950432837E-1,8.882488251E0,1.884236693E0
3.219028632E1,2.992752194E-1,9.081207275E0,1.776497602E0
3.220630782E1,3.136404157E-1,9.069235802E0,1.668758631E0
3.222232932E1,4.405331016E-1,8.827422142E0,1.505952835E0
3.223835082E1,5.578489900E-1,8.664615631E0,1.520318031E0
3.225437232E1,5.626373887E-1,8.635885239E0,1.582567334E0
3.227039382E1,5.195417404E-1,8.863334656E0,1.529894829E0
3.228641532E1,5.506663918E-1,9.165003777E0,1.256955862E0
3.230243681E1,4.788403511E-1,9.222464561E0,1.173158884E0
3.231845831E1,3.351882398E-1,9.095572472E0,1.285686255E0
3.233451033E1,5.698199868E-1,8.791508675E0,1.165976286E0
3.235053183E1,1.237802267E0,8.836998940E0,8.403648138E-1
3.236655333E1,1.721431017E0,9.533711433E0,1.580173075E-1
3.238257483E1,2.173935175E0,1.057518864E1,5.626373887E-1
3.239859632E1,1.833958507E0,1.090319443E1,1.036689281E0
3.241461782E1,1.441309452E0,1.092953110E1,8.427590132E-1
3.243063932E1,2.116474390E0,1.151850414E1,1.098938584E0
3.244666082E1,2.260126352E0,1.230859089E1,7.517793179E-1
3.246268232E1,1.584961534E0,1.180580902E1,7.206547260E-1
3.247870382E1,9.935936928E-1,1.055603504E1,6.416460276E-1
3.249472532E1,-2.394201756E-1,9.641449928E0,1.843535304E0
3.251074682E1,-8.499416113E-1,1.017296314E1,2.367865562E0
3.252676832E1,-1.364694983E-1,1.157835960E1,2.533065319E0
3.254278982E1,6.129156351E-1,1.185129833E1,1.508347034E0
3.255881132E1,1.005564690E0,1.130063248E1,6.823474765E-1
3.257486333E1,9.026140571E-1,1.012268448E1,7.422025204E-1
3.259088483E1,6.823474765E-1,9.198522568E0,9.481038451E-1
3.260690633E1,2.896983922E-1,8.209717751E0,9.337386489E-1
3.262292783E1,-1.867477298E-1,7.869740963E0,7.589619160E-1
3.263894933E1,-2.178723514E-1,8.135497093E0,5.315127969E-1
3.265497083E1,4.501099288E-1,8.532935143E0,5.147533417E-1
3.267099233E1,1.043871999E0,8.671798706E0,2.370259613E-1
3.268701383E1,1.177947283E0,8.374917984E0,4.884171486E-1
3.270303533E1,6.943184733E-1,7.893682957E0,5.291185975E-1
3.271905682E1,5.051765442E-1,7.407660007E0,5.506663918E-1
3.273507832E1,5.195417404E-1,8.027758598E0,5.770025849E-1
3.275109982E1,1.046266198E0,8.698134422E0,6.607996821E-1
3.276712132E1,1.671152830E0,9.356540680E0,4.548983276E-1
3.278314282E1,1.728613615E0,9.270348549E0,6.943184882E-2
3.279916432E1,2.104503393E0,8.652645111E0,6.943184882E-2
3.281518582E1,2.219424963E0,8.082824707E0,-3.327940404E-1
3.283120732E1,2.293645144E0,8.283937454E0,-1.604115069E-1
3.284722882E1,2.367865562E0,8.669404030E0,-2.370259613E-1
3.286325032E1,1.965639591E0,9.306262016E0,-3.184288144E-1
3.287927182E1,1.685518026E0,8.693346024E0,-5.003881454E-1
3.289529331E1,1.091755986E0,9.064447403E0,-1.963245422E-1
3.291131481E1,6.584054828E-1,9.684545517E0,8.858546615E-2
3.292733631E1,1.448492050E0,9.677363396E0,6.224924326E-2
3.294335781E1,1.644816518E0,1.016338634E1,1.484405100E-1
3.295937931E1,1.843535304E0,9.761159897E0,6.703764945E-2
3.297540081E1,2.214636564E0,8.678980827E0,-6.464344263E-2
3.299142231E1,1.872265697E0,8.262390137E0,2.322375625E-1
3.300744381E1,1.860294700E0,8.513781548E0,6.464344859E-1
3.302346531E1,2.451662540E0,9.210494041E0,7.182605267E-1
3.303951732E1,2.554613113E0,1.069011021E1,9.959878922E-1
3.305553882E1,2.913743496E0,1.060152531E1,6.129156351E-1
3.307156032E1,3.378218651E0,1.005564690E1,4.501099288E-1
3.308758182E1,2.906560898E0,9.940725327E0,8.547300100E-1
3.310360332E1,2.121262789E0,9.387664795E0,1.170764685E0
3.311962482E1,2.480392933E0,8.080430984E0,1.005564690E0
3.313564632E1,1.764526606E0,9.327810287E0,1.525106430E0
3.315166782E1,1.867477298E0,9.552865028E0,1.551442742E0
3.316768932E1,2.011129379E0,8.904036522E0,1.223437071E0
3.318371082E1,2.449268341E0,7.788338184E0,1.417367458E0
3.319973231E1,1.920149803E0,8.154650688E0,7.948749661E-1
3.321575381E1,2.461239338E0,7.898471355E0,1.110909581E0
3.323177531E1,2.111685991E0,7.924807549E0,1.256955862E0
3.324779681E1,1.862688899E0,8.250418663E0,1.211466074E0
3.326381831E1,2.343923569E0,7.836222172E0,1.022324085E0
3.327983981E1,1.723825216E0,8.803479195E0,1.541865945E0
3.329586131E1,1.740584612E0,8.085219383E0,1.434126854E0
