"Time (s)","Acceleration x (m/s^2)","Acceleration y (m/s^2)","Acceleration z (m/s^2)"
4.109225100E-2,-1.359721422E0,9.525827408E0,9.032905698E-1
5.029220200E-2,-1.341177106E0,9.588040352E0,9.463613629E-1
6.695886800E-2,-1.332203984E0,9.631709099E0,1.042074203E0
8.362553400E-2,-1.124626637E0,9.746564865E0,8.763712645E-1
1.002922000E-1,-1.003789067E0,9.894919395E0,7.674978375E-1
1.169588660E-1,-1.197009563E0,9.789037704E0,8.662018180E-1
1.336255320E-1,-1.307079315E0,9.678967476E0,8.560323119E-1
1.502921980E-1,-1.307677627E0,9.683753014E0,9.326026440E-1
1.669588640E-1,-1.230509043E0,9.650852203E0,9.332008362E-1
1.836255300E-1,-1.125224829E0,9.598808289E0,9.864411354E-1
2.002921960E-1,-1.028913736E0,9.617950439E0,9.541380405E-1
2.169588620E-1,-1.071984529E0,9.661021233E0,9.104689956E-1
2.336255280E-1,-1.186840057E0,9.636494637E0,8.428717852E-1
2.502921940E-1,-1.302293777E0,9.745966911E0,8.225327730E-1
2.669588600E-1,-1.192223907E0,9.722636223E0,9.188438654E-1
2.836255260E-1,-1.240678549E0,9.555737495E0,1.014556766E0
3.002921920E-1,-1.187438250E0,9.607781410E0,9.427721500E-1
3.169588580E-1,-1.220339537E0,9.636494637E0,8.662018180E-1
3.336255240E-1,-1.240080357E0,9.784252167E0,8.805587292E-1
3.502921900E-1,-1.240678549E0,9.841679573E0,8.997012973E-1
3.669588560E-1,-1.129412293E0,9.794421196E0,8.620143533E-1
3.836255220E-1,-1.264606714E0,9.655637741E0,1.009172916E0
4.002921880E-1,-1.393819213E0,9.502496719E0,9.936196208E-1
4.169588540E-1,-1.436890006E0,9.411569595E0,9.984052777E-1
4.336255200E-1,-1.557129383E0,9.334999084E0,1.025922656E0
4.502921860E-1,-1.408176184E0,9.430113792E0,9.266205430E-1
4.669588520E-1,-1.063609719E0,9.952347755E0,9.918249846E-1
4.836255180E-1,-8.033902049E-1,1.006720352E1,8.506484628E-1
5.002921840E-1,-1.033101201E0,9.784850121E0,8.153542876E-1
5.169588500E-1,-1.241276741E0,9.617352486E0,1.071386337E0
5.336255160E-1,-1.340578914E0,9.473783493E0,9.367900491E-1
5.502921820E-1,-1.206580877E0,9.689137459E0,9.284151793E-1
5.669588480E-1,-1.225723386E0,9.708279610E0,9.092726111E-1
5.836255140E-1,-1.230509043E0,9.693922997E0,9.140582681E-1
6.002921800E-1,-1.206580877E0,9.708279610E0,9.236295223E-1
6.169588460E-1,-1.225723386E0,9.655637741E0,9.236295223E-1
6.336255120E-1,-1.215553880E0,9.646066666E0,8.805587292E-1
6.502921780E-1,-1.268794179E0,9.674181938E0,8.703892231E-1
6.669588440E-1,-1.273579836E0,9.683753014E0,9.230313301E-1
6.836255100E-1,-1.278365493E0,9.688538551E0,8.895317912E-1
7.002921760E-1,-1.229910851E0,9.664610863E0,8.614161611E-1
7.169588420E-1,-1.259222865E0,9.646066666E0,9.038887620E-1
7.336255080E-1,-1.244866014E0,9.650852203E0,8.901300430E-1
7.502921740E-1,-1.143769264E0,9.674779892E0,9.050851464E-1
7.669588400E-1,-1.119840980E0,9.698708534E0,8.817551732E-1
7.836255060E-1,-1.177268744E0,9.650852203E0,9.098708034E-1
8.002921720E-1,-1.186840057E0,9.655637741E0,9.146564603E-1
8.169588380E-1,-1.182054400E0,9.669994354E0,8.859425783E-1
8.336255040E-1,-1.186840057E0,9.703494072E0,8.859425783E-1
8.502921700E-1,-1.230509043E0,9.698708534E0,8.949156404E-1
8.669588360E-1,-1.244267821E0,9.655637741E0,8.470591903E-1
8.836255020E-1,-1.239482164E0,9.660423279E0,8.614161611E-1
9.002921680E-1,-1.225125194E0,9.689137459E0,8.709874153E-1
9.169588340E-1,-1.249651670E0,9.726823807E0,8.614161611E-1
9.336255000E-1,-1.268195987E0,9.655039787E0,8.231309652E-1
9.502921660E-1,-1.268195987E0,9.659825325E0,8.087740541E-1
9.669588320E-1,-1.215553880E0,9.693324089E0,8.518448472E-1
9.836254980E-1,-1.205982566E0,9.664610863E0,8.374879360E-1
1.000292164E0,-1.229910851E0,9.688538551E0,8.327022791E-1
1.016958830E0,-1.259222865E0,9.645467758E0,8.614161611E-1
1.033625496E0,-1.253839016E0,9.631709099E0,8.279166222E-1
1.050292162E0,-1.272981644E0,9.640682220E0,8.279166222E-1
1.066958828E0,-1.287338614E0,9.688538551E0,7.986045480E-1
1.083625494E0,-1.282552958E0,9.717252731E0,7.944171429E-1
1.100292160E0,-1.282552958E0,9.669396400E0,8.177471161E-1
1.116958826E0,-1.249053478E0,9.674181938E0,8.183453679E-1
1.133625492E0,-1.253839016E0,9.650253296E0,8.374879360E-1
1.150292158E0,-1.302293777E0,9.621540070E0,8.608179688E-1
1.166958824E0,-1.229312658E0,9.678967476E0,7.561319470E-1
1.183625490E0,-1.238883972E0,9.678967476E0,7.800601721E-1
1.200292156E0,-1.258624673E0,9.669396400E0,7.848458290E-1
1.216958822E0,-1.277767301E0,9.678967476E0,7.800601721E-1
1.233625488E0,-1.311864972E0,9.664610863E0,8.416753411E-1
1.250292154E0,-1.272981644E0,9.645467758E0,7.800601721E-1
1.266958820E0,-1.287338614E0,9.659825325E0,7.794619799E-1
1.283625486E0,-1.292124271E0,9.712467194E0,7.746763229E-1
1.300292152E0,-1.296909928E0,9.707681656E0,7.603194118E-1
1.316958818E0,-1.306481123E0,9.716654778E0,7.555337548E-1
1.333625484E0,-1.253240824E0,9.702896118E0,7.609176040E-1
1.350292150E0,-1.225125194E0,9.665208817E0,8.566305041E-1
1.366958816E0,-1.210768223E0,9.626923561E0,8.949156404E-1
1.383625482E0,-1.176670551E0,9.641280174E0,8.333004713E-1
1.400292148E0,-1.191625714E0,9.674779892E0,8.763712645E-1
1.416958814E0,-1.220937729E0,9.698708534E0,8.901300430E-1
1.433625480E0,-1.158724308E0,9.741779327E0,9.242277741E-1
1.450292146E0,-1.115055323E0,9.732208252E0,9.296116233E-1
1.466958812E0,-1.115653515E0,9.694520950E0,9.864411354E-1
1.483625478E0,-1.092323542E0,9.670592308E0,1.086939692E0
1.500292144E0,-1.043868899E0,9.670592308E0,1.030110121E0
1.516958810E0,-9.236295223E-1,9.757332802E0,1.002592683E0
1.533625476E0,-9.427721500E-1,9.790832520E0,1.021735311E0
1.550292142E0,-9.912267923E-1,9.704689980E0,1.064207911E0
1.566958808E0,-1.015154958E0,9.656833649E0,1.102493048E0
1.583625474E0,-1.048654556E0,9.652048111E0,1.049252748E0
1.600292140E0,-1.067198873E0,9.689735413E0,9.918249846E-1
1.616958806E0,-1.071984529E0,9.713663101E0,9.439685345E-1
1.633625472E0,-1.110269666E0,9.723235130E0,9.391828775E-1
1.650292138E0,-1.115055323E0,9.698708534E0,9.008977413E-1
1.666958804E0,-1.071386337E0,9.698708534E0,8.578268886E-1
1.683625470E0,-1.071386337E0,9.665806770E0,8.865407705E-1
1.700292136E0,-1.080957651E0,9.641280174E0,8.434699774E-1
1.716958802E0,-1.162313581E0,9.660423279E0,8.189435601E-1
1.733625468E0,-1.224527001E0,9.664610863E0,7.800601721E-1
1.750292134E0,-1.272383451E0,9.688538551E0,7.130611539E-1
1.766958800E0,-1.368694544E0,9.654440880E0,7.405785918E-1
1.783625466E0,-1.425524116E0,9.597013474E0,6.400800347E-1
1.800292132E0,-1.396810174E0,9.654440880E0,6.592226624E-1
1.816958798E0,-1.406381488E0,9.654440880E0,6.544370055E-1
1.833625464E0,-1.387837172E0,9.668798447E0,6.879364848E-1
1.850292130E0,-1.387837172E0,9.668798447E0,7.405785918E-1
1.866958796E0,-1.358525038E0,9.630513191E0,7.076773047E-1
1.883625462E0,-1.335195065E0,9.664610863E0,7.459624410E-1
1.900292128E0,-1.301097274E0,9.764511108E0,6.933203340E-1
1.916958794E0,-1.287338614E0,9.783653259E0,7.082754970E-1
1.933625460E0,-1.354337573E0,9.745368004E0,7.076773047E-1
1.950292126E0,-1.422533035E0,9.836296082E0,7.830511928E-1
1.966958792E0,-1.427916884E0,9.702896118E0,9.218349457E-1
1.983625458E0,-1.436890006E0,9.492327690E0,9.361918569E-1
2.000292124E0,-1.354935765E0,9.454640388E0,9.463613629E-1
2.016958790E0,-1.066002488E0,9.488738060E0,8.769695163E-1
2.033625456E0,-1.003789067E0,9.488738060E0,8.967102766E-1
2.050292122E0,-9.798609018E-1,9.713663101E0,8.542376757E-1
2.066958788E0,-9.224331379E-1,9.870991707E0,8.303094506E-1
2.083625454E0,-9.852447510E-1,9.875777245E0,8.398807645E-1
2.100292120E0,-1.207179070E0,9.836894035E0,9.236295223E-1
2.116958786E0,-1.412961721E0,9.655039787E0,9.026923180E-1
2.133625452E0,-1.393819213E0,9.568898201E0,9.272187948E-1
2.150292118E0,-1.336391449E0,9.607781410E0,9.702895880E-1
2.166958784E0,-1.197009563E0,9.631709099E0,9.523434043E-1
2.183625450E0,-1.168295622E0,9.646066666E0,9.481559992E-1
2.200292116E0,-1.216750264E0,9.708279610E0,9.858429432E-1
2.216958782E0,-1.345962763E0,9.722038269E0,9.032905698E-1
2.233625448E0,-1.360319614E0,9.650852203E0,9.607182741E-1
2.250292114E0,-1.273579836E0,9.602995872E0,9.517452121E-1
2.266958780E0,-1.211366415E0,9.608379364E0,9.858429432E-1
2.283625446E0,-1.125224829E0,9.608379364E0,1.043868899E0
2.300292112E0,-1.033699393E0,9.651450157E0,1.001994491E0
2.316958778E0,-1.048056364E0,9.728020668E0,9.822536707E-1
2.333625444E0,-1.101296663E0,9.713663101E0,9.966106415E-1
2.350292110E0,-1.119840980E0,9.717850685E0,9.337990284E-1
2.366958776E0,-1.168295622E0,9.679565430E0,9.290133715E-1
2.383625442E0,-1.168295622E0,9.722636223E0,9.337990284E-1
2.400292108E0,-1.182652593E0,9.665208817E0,9.625129104E-1
2.416958774E0,-1.076770186E0,9.656235695E0,9.200403094E-1
2.433625440E0,-9.708877802E-1,9.713663101E0,9.547362328E-1
2.450292106E0,-9.906286001E-1,9.680762291E0,9.780662656E-1
2.466958772E0,-1.057627559E0,9.651450157E0,9.678967595E-1
2.483625438E0,-1.095314622E0,9.637093544E0,8.817551732E-1
2.500292104E0,-1.085743308E0,9.680164337E0,8.865407705E-1
2.516958770E0,-1.066600680E0,9.689735413E0,8.769695163E-1
2.533625436E0,-1.080957651E0,9.722636223E0,8.769695163E-1
2.550292102E0,-1.086341500E0,9.756135941E0,9.056833982E-1
2.566958768E0,-1.100698471E0,9.736993790E0,9.104689956E-1
2.583625434E0,-1.043868899E0,9.699306488E0,1.020538807E0
2.600292100E0,-1.004387259E0,9.665806770E0,9.397810698E-1
2.616958766E0,-1.043270707E0,9.651450157E0,9.445667267E-1
2.633625432E0,-1.139581800E0,9.684949875E0,9.912267923E-1
2.650292098E0,-1.134197950E0,9.708279610E0,8.811569214E-1
2.666958764E0,-1.115055323E0,9.751350403E0,8.578268886E-1
2.683625430E0,-1.119840980E0,9.732208252E0,9.002995491E-1
2.700292096E0,-1.095912814E0,9.661021233E0,9.200403094E-1
2.716958762E0,-1.071984529E0,9.613164902E0,9.296116233E-1
2.733625428E0,-1.043270707E0,9.632308006E0,9.870393276E-1
2.750292094E0,-1.053440213E0,9.670592308E0,1.001396298E0
2.766958760E0,-1.043270707E0,9.708877563E0,9.631111026E-1
2.783625426E0,-1.071984529E0,9.732208252E0,9.200403094E-1
2.800292092E0,-1.091127157E0,9.728020668E0,9.296116233E-1
2.816958758E0,-1.110269666E0,9.689735413E0,9.296116233E-1
2.833625424E0,-1.091127157E0,9.684949875E0,9.631111026E-1
2.850292090E0,-1.009771109E0,9.704092026E0,9.445667267E-1
2.866958756E0,-9.954141974E-1,9.670592308E0,9.924231768E-1
2.883625422E0,-1.000199914E0,9.670592308E0,9.732806087E-1
2.900292088E0,-1.018744230E0,9.713663101E0,9.014959335E-1
2.916958754E0,-9.852447510E-1,9.799804688E0,8.967102766E-1
2.933625420E0,-9.996016622E-1,9.737591743E0,9.110672474E-1
2.950292086E0,-1.033699393E0,9.661021233E0,9.684949517E-1
2.966958752E0,-1.033699393E0,9.651450157E0,9.589236975E-1
2.983625418E0,-1.038485050E0,9.661021233E0,9.445667267E-1
3.000292084E0,-1.028315544E0,9.732806206E0,8.919246197E-1
3.016958750E0,-1.081555843E0,9.684949875E0,9.343972206E-1
3.033625416E0,-1.115055323E0,9.661021233E0,9.248259664E-1
3.050292082E0,-1.143769264E0,9.674779892E0,8.955138922E-1
3.066958748E0,-1.153340459E0,9.693922997E0,9.194421172E-1
3.083625414E0,-1.158724308E0,9.751350403E0,9.098708034E-1
3.100292080E0,-1.144367456E0,9.718449593E0,1.005583763E0
3.116958746E0,-1.028913736E0,9.684949875E0,9.541380405E-1
3.133625412E0,-9.810572863E-1,9.690333366E0,1.016351461E0
3.150292078E0,-9.475577474E-1,9.695118904E0,1.050449133E0
3.166958744E0,-8.799605370E-1,9.704689980E0,9.601200819E-1
3.183625410E0,-8.267202377E-1,9.785448074E0,8.745766878E-1
3.200292076E0,-9.032905698E-1,9.713663101E0,8.500502706E-1
3.216958742E0,-1.095314622E0,9.646066666E0,8.195417523E-1
3.233625408E0,-1.191027522E0,9.646066666E0,8.045865893E-1
3.250292074E0,-1.387837172E0,9.635896683E0,7.884350419E-1
3.266958740E0,-1.585245013E0,9.606584549E0,7.674978375E-1
3.283625406E0,-1.599601984E0,9.558728218E0,7.914260626E-1
3.300292072E0,-1.614557028E0,9.549157143E0,8.967102766E-1
3.316958738E0,-1.460818172E0,9.597611427E0,8.452646136E-1
3.333625404E0,-1.398006678E0,9.640682220E0,8.506484628E-1
3.350292070E0,-1.321436286E0,9.702896118E0,8.656035662E-1
3.366958736E0,-1.307079315E0,9.717252731E0,8.703892231E-1
3.383625402E0,-1.403390527E0,9.655039787E0,9.026923180E-1
3.400292068E0,-1.287936807E0,9.646066666E0,9.278169870E-1
3.416958734E0,-1.186840057E0,9.660423279E0,9.044869542E-1
3.433625400E0,-1.091127157E0,9.651450157E0,9.726824164E-1
3.450292066E0,-1.125823021E0,9.732806206E0,1.019940615E0
3.466958732E0,-1.077966571E0,9.747162819E0,1.058824062E0
3.483625398E0,-1.043868899E0,9.671191216E0,1.058824062E0
3.500292064E0,-1.058225870E0,9.647262573E0,1.063609719E0
3.516958730E0,-1.115653515E0,9.622735977E0,1.048654556E0
3.533625396E0,-1.058225870E0,9.709476471E0,1.077966571E0
3.550292062E0,-9.433703423E-1,9.752547264E0,1.098305583E0
3.566958728E0,-9.433703423E-1,9.638289452E0,1.112662554E0
3.583625394E0,-1.073180914E0,9.599406242E0,1.144965649E0
3.600292060E0,-1.140179992E0,9.618548393E0,1.125224829E0
3.616958726E0,-1.082154036E0,9.704092026E0,1.034895778E0
3.633625392E0,-1.120439172E0,9.704092026E0,1.024726272E0
3.650292058E0,-1.106082320E0,9.775876999E0,1.010369420E0
3.666958724E0,-9.810572863E-1,9.733404160E0,1.021137118E0
3.683625390E0,-9.332008362E-1,9.699904442E0,1.064806104E0
3.700292056E0,-8.901300430E-1,9.614361763E0,1.060618639E0
3.716958722E0,-8.416753411E-1,9.647860527E0,1.060618639E0
3.733625388E0,-7.746763229E-1,9.767501831E0,1.042074203E0
3.750292054E0,-7.166503668E-1,9.729216576E0,1.018744230E0
3.766958720E0,-7.118647099E-1,9.705288887E0,1.037886858E0
3.783625386E0,-8.129615188E-1,9.738189697E0,1.037288666E0
3.800292052E0,-9.140582681E-1,9.723833084E0,1.074377418E0
3.816958718E0,-9.290133715E-1,9.690333366E0,1.107876897E0
3.833625384E0,-9.182456732E-1,9.685547829E0,1.002592683E0
3.850292050E0,-9.996016622E-1,9.652048111E0,9.637092948E-1
3.866958716E0,-1.120439172E0,9.718449593E0,9.912267923E-1
3.883625382E0,-1.206580877E0,9.751350403E0,9.571290612E-1
3.900292048E0,-1.273579836E0,9.665208817E0,9.326026440E-1
3.916958714E0,-1.322034478E0,9.612566948E0,9.326026440E-1
3.933625380E0,-1.369890928E0,9.664610863E0,9.272187948E-1
3.950292046E0,-1.355534077E0,9.693324089E0,9.032905698E-1
3.966958712E0,-1.278365493E0,9.631709099E0,9.230313301E-1
3.983625378E0,-1.268195987E0,9.550353050E0,8.997012973E-1
4.000292044E0,-1.182054400E0,9.636494637E0,9.290133715E-1
4.016958710E0,-1.091127157E0,9.713663101E0,9.343972206E-1
4.033625376E0,-1.067198873E0,9.723235130E0,9.343972206E-1
4.050292042E0,-1.076770186E0,9.747162819E0,9.631111026E-1
4.066958708E0,-9.762716293E-1,9.742975235E0,1.011565804E0
4.083625374E0,-9.134600163E-1,9.551549911E0,1.007378340E0
4.100292040E0,-9.619147182E-1,9.570692062E0,1.088136077E0
4.116958706E0,-1.005583763E0,9.642477036E0,1.083350420E0
4.133625372E0,-1.130608678E0,9.747162819E0,1.019940615E0
4.150292038E0,-1.217348576E0,9.784850121E0,1.033699393E0
4.166958704E0,-1.140179992E0,9.784850121E0,9.960124493E-1
4.183625370E0,-1.153938770E0,9.661021233E0,9.960124493E-1
4.200292036E0,-1.298106313E0,9.588638306E0,1.018744230E0
4.216958702E0,-1.375274777E0,9.588638306E0,1.018146038E0
4.233625368E0,-1.461416483E0,9.621540070E0,9.744769931E-1
4.250292034E0,-1.471585870E0,9.659825325E0,1.007378340E0
4.266958700E0,-1.490728498E0,9.592825890E0,9.978070259E-1
4.283625366E0,-1.528415442E0,9.583254814E0,9.499505758E-1
4.300292032E0,-1.494915962E0,9.616754532E0,9.499505758E-1
4.316958698E0,-1.470389485E0,9.659226418E0,8.691928387E-1
4.333625364E0,-1.537986755E0,9.673583984E0,9.212366939E-1
4.350292030E0,-1.524227977E0,9.631111145E0,9.738788009E-1
4.366958696E0,-1.369890928E0,9.564710617E0,9.750752449E-1
4.383625362E0,-1.273579836E0,9.583852768E0,9.613165259E-1
4.400292028E0,-1.091127157E0,9.708877563E0,9.678967595E-1
4.416958694E0,-1.019342422E0,9.795019150E0,9.349954724E-1
4.433625360E0,-1.037886858E0,9.784850121E0,8.871390224E-1
4.450292026E0,-1.081555843E0,9.689735413E0,9.439685345E-1
4.466958692E0,-1.076770186E0,9.598808289E0,9.822536707E-1
4.483625358E0,-1.052842021E0,9.608379364E0,9.726824164E-1
4.500292024E0,-1.024128079E0,9.680164337E0,9.732806087E-1
4.516958690E0,-1.019940615E0,9.799804688E0,1.001994491E0
4.533625356E0,-1.100698471E0,9.718449593E0,9.535398483E-1
4.550292022E0,-1.196411371E0,9.555737495E0,9.523434043E-1
4.566958688E0,-1.240080357E0,9.516854286E0,9.619147182E-1
4.583625354E0,-1.341177106E0,9.579067230E0,9.607182741E-1
4.600292020E0,-1.432104349E0,9.655039787E0,8.931210637E-1
4.616958686E0,-1.523629785E0,9.726225853E0,8.542376757E-1
4.633625352E0,-1.504487276E0,9.759725571E0,8.590233326E-1
4.650292018E0,-1.480558991E0,9.716654778E0,8.787640929E-1
4.666958684E0,-1.384247899E0,9.569496155E0,9.367900491E-1
4.683625350E0,-1.336391449E0,9.531210899E0,1.027717352E0
4.700292016E0,-1.360319614E0,9.617352486E0,9.750752449E-1
4.716958682E0,-1.365105271E0,9.693324089E0,9.320043921E-1
4.733625348E0,-1.379462242E0,9.707681656E0,9.080761671E-1
4.750292014E0,-1.422533035E0,9.722038269E0,8.739784956E-1
4.766958680E0,-1.422533035E0,9.698110580E0,9.026923180E-1
4.783625346E0,-1.370489120E0,9.574281693E0,1.008574724E0
4.800292012E0,-1.317847013E0,9.598209381E0,1.070788145E0
4.816958678E0,-1.293918848E0,9.636494637E0,1.047458172E0
4.833625344E0,-1.221535921E0,9.660423279E0,9.954141974E-1
4.850292010E0,-1.109671474E0,9.612566948E0,8.721838593E-1
4.866958676E0,-1.119242787E0,9.646066666E0,8.530412912E-1
4.883625342E0,-1.091127157E0,9.770493507E0,8.961120844E-1
4.900292008E0,-1.124626637E0,9.746564865E0,8.530412912E-1
4.916958674E0,-1.177268744E0,9.717850685E0,8.333004713E-1
4.933625340E0,-1.239482164E0,9.665208817E0,8.805587292E-1
4.950292006E0,-1.162911773E0,9.584450722E0,9.481559992E-1
4.966958672E0,-1.057029366E0,9.603593826E0,9.014959335E-1
4.983625338E0,-1.147956610E0,9.650852203E0,8.668000102E-1
5.000292004E0,-1.234696507E0,9.717850685E0,8.470591903E-1
5.016958670E0,-1.249053478E0,9.817750931E0,7.800601721E-1
5.033625336E0,-1.272981644E0,9.774680138E0,7.417750359E-1
5.050292002E0,-1.302293777E0,9.674181938E0,8.512466550E-1
5.066958668E0,-1.302293777E0,9.516854286E0,9.134600163E-1
5.083625334E0,-1.311266780E0,9.545567513E0,8.512466550E-1
5.100292000E0,-1.364507079E0,9.611968994E0,8.458628058E-1
5.116958666E0,-1.446461320E0,9.697511673E0,8.165507317E-1
5.133625332E0,-1.512862086E0,9.683155060E0,7.537391186E-1
5.150291998E0,-1.633699656E0,9.763913155E0,7.812566161E-1
5.166958664E0,-1.609771490E0,9.739984512E0,8.201399446E-1
5.183625330E0,-1.546959877E0,9.664012909E0,8.303094506E-1
5.200291996E0,-1.335195065E0,9.597611427E0,8.416753411E-1
5.216958662E0,-1.253839016E0,9.631709099E0,8.709874153E-1
5.233625328E0,-1.244267821E0,9.674779892E0,8.757730722E-1
5.250291994E0,-1.263410330E0,9.688538551E0,8.470591903E-1
5.266958660E0,-1.268794179E0,9.674779892E0,8.949156404E-1
5.283625326E0,-1.321436286E0,9.593423843E0,9.134600163E-1
5.300291992E0,-1.274178028E0,9.713065147E0,9.517452121E-1
5.316958658E0,-1.239482164E0,9.679565430E0,8.566305041E-1
5.333625324E0,-1.201795220E0,9.613164902E0,9.475577474E-1
5.350291990E0,-1.292722464E0,9.703494072E0,8.943174481E-1
5.366958656E0,-1.345364571E0,9.702896118E0,8.703892231E-1
5.383625322E0,-1.407577872E0,9.707083702E0,7.740781307E-1
5.400291988E0,-1.454836130E0,9.625727654E0,7.208378315E-1
5.416958654E0,-1.402792215E0,9.540184021E0,8.985049129E-1
5.433625320E0,-1.374078393E0,9.616754532E0,8.793623447E-1
5.450291986E0,-1.335793257E0,9.659825325E0,8.608179688E-1
5.466958652E0,-1.339980721E0,9.616754532E0,8.129615188E-1
5.483625318E0,-1.368694544E0,9.616754532E0,7.597211599E-1
5.500291984E0,-1.223928809E0,9.755537987E0,6.705885530E-1
5.516958650E0,-1.238285661E0,9.807581902E0,5.988038778E-1
5.533625316E0,-1.171286702E0,9.803394318E0,6.562315822E-1
5.550291982E0,-1.003190875E0,9.789635658E0,7.106683254E-1
5.566958648E0,-9.409775138E-1,9.771091461E0,7.680960894E-1
5.583625314E0,-8.261220455E-1,9.738189697E0,8.267202377E-1
5.600291980E0,-7.058826685E-1,9.652647018E0,8.518448472E-1
5.616958646E0,-6.526423693E-1,9.604789734E0,8.709874153E-1
5.633625312E0,-6.293123364E-1,9.643673897E0,9.625129104E-1
5.650291978E0,-7.555337548E-1,9.762716293E0,1.037886858E0
5.666958644E0,-9.134600163E-1,9.714262009E0,9.403793216E-1
5.683625310E0,-1.018744230E0,9.708877563E0,8.967102766E-1
5.700291976E0,-1.051645517E0,9.708279610E0,7.962117195E-1
5.716958642E0,-1.138385415E0,9.727422714E0,8.141579032E-1
5.733625308E0,-1.321436286E0,9.731609344E0,8.273184299E-1
5.750291974E0,-1.465005636E0,9.625727654E0,8.261220455E-1
5.766958640E0,-1.527219057E0,9.496515274E0,8.207381964E-1
5.783625306E0,-1.575075507E0,9.568299294E0,7.489534616E-1
5.800291972E0,-1.599003673E0,9.625128746E0,7.100701332E-1
5.816958638E0,-1.700100541E0,9.653244972E0,6.855437160E-1
5.833625304E0,-1.780858278E0,9.619745255E0,5.988038778E-1
5.850291970E0,-1.747358680E0,9.605388641E0,5.940182209E-1
5.866958636E0,-1.679761529E0,9.648459435E0,5.706881881E-1
5.883625302E0,-1.646261930E0,9.696315765E0,5.617151260E-1
5.900291968E0,-1.670788407E0,9.748957634E0,5.946164131E-1
5.916958634E0,-1.680957913E0,9.662816048E0,6.664010882E-1
5.933625300E0,-1.642074585E0,9.586843491E0,6.717849374E-1
5.950291966E0,-1.589432478E0,9.582057953E0,6.765705943E-1
5.966958632E0,-1.521835208E0,9.634700775E0,6.442674994E-1
5.983625298E0,-1.483550072E0,9.720842361E0,6.634100676E-1
6.000291964E0,-1.374078393E0,9.778867722E0,7.501499057E-1
6.016958630E0,-1.329811215E0,9.602396965E0,7.028916478E-1
6.033625296E0,-1.306481123E0,9.526425362E0,8.560323119E-1
6.050291962E0,-1.240080357E0,9.693922997E0,8.949156404E-1
6.066958628E0,-1.191625714E0,9.746564865E0,8.715856671E-1
6.083625294E0,-1.147956610E0,9.750752449E0,7.806583643E-1
6.100291960E0,-1.171884894E0,9.631709099E0,8.045865893E-1
6.116958626E0,-1.249053478E0,9.631111145E0,7.992027402E-1
6.133625292E0,-1.354337573E0,9.669396400E0,7.932206988E-1
6.150291958E0,-1.374078393E0,9.697511673E0,7.740781307E-1
6.166958624E0,-1.412363529E0,9.745368004E0,7.405785918E-1
6.183625290E0,-1.454836130E0,9.754940033E0,6.825526357E-1
6.200291956E0,-1.497906923E0,9.735198975E0,6.825526357E-1
6.216958622E0,-1.646860242E0,9.591629982E0,6.861419082E-1
6.233625288E0,-1.719841242E0,9.505488396E0,7.950153351E-1
6.250291954E0,-1.704886079E0,9.481559753E0,7.764709592E-1
6.266958620E0,-1.632503271E0,9.529416084E0,7.148557901E-1
6.283625286E0,-1.493121386E0,9.696913719E0,6.442674994E-1
6.300291952E0,-1.459023595E0,9.759127617E0,5.916253924E-1
6.316958618E0,-1.474576950E0,9.763913155E0,7.016952634E-1
6.333625284E0,-1.479362607E0,9.711869240E0,7.208378315E-1
6.350291950E0,-1.430309772E0,9.534799576E0,6.927221417E-1
6.366958616E0,-1.320239902E0,9.549755096E0,7.172485590E-1
6.383625282E0,-1.329811215E0,9.678369522E0,7.028916478E-1
6.400291948E0,-1.402194023E0,9.826126099E0,6.544370055E-1
6.416958614E0,-1.392622828E0,9.826724052E0,6.927221417E-1
6.433625280E0,-1.339382529E0,9.607182503E0,7.172485590E-1
6.450291946E0,-1.214357495E0,9.488140106E0,7.375875711E-1
6.466958612E0,-1.186241865E0,9.665208817E0,7.902296782E-1
6.483625278E0,-1.329811215E0,9.716654778E0,7.076773047E-1
6.500291944E0,-1.416550994E0,9.721440315E0,7.357929349E-1
6.516958610E0,-1.459621787E0,9.759127617E0,6.394818425E-1
6.533625276E0,-1.450050473E0,9.592227936E0,6.969096065E-1
6.550291942E0,-1.344168067E0,9.597611427E0,7.172485590E-1
6.566958608E0,-1.364507079E0,9.731011391E0,7.692924738E-1
6.583625274E0,-1.474576950E0,9.735198975E0,6.921239495E-1
6.600291940E0,-1.508076429E0,9.716055870E0,6.969096065E-1
6.616958606E0,-1.512862086E0,9.706484795E0,7.010970116E-1
6.633625272E0,-1.488335729E0,9.620942116E0,6.873382926E-1
6.650291938E0,-1.411765337E0,9.707083702E0,7.310073376E-1
6.666958604E0,-1.421336651E0,9.716654778E0,7.022934556E-1
6.683625270E0,-1.421336651E0,9.683155060E0,6.831508875E-1
6.700291936E0,-1.426122308E0,9.611370087E0,6.927221417E-1
6.716958602E0,-1.406979680E0,9.587442398E0,7.166503668E-1
6.733625268E0,-1.426122308E0,9.606584549E0,6.975077987E-1
6.750291934E0,-1.512263894E0,9.687342644E0,6.299105883E-1
6.766958600E0,-1.488335729E0,9.759127617E0,6.203392744E-1
6.783625266E0,-1.545165181E0,9.687342644E0,5.718846321E-1
6.800291932E0,-1.588834286E0,9.610772133E0,6.149554253E-1
6.816958598E0,-1.579262972E0,9.629914284E0,5.814558864E-1
6.833625264E0,-1.564906001E0,9.682557106E0,5.814558864E-1
6.850291930E0,-1.599003673E0,9.763314247E0,6.191428304E-1
6.866958596E0,-1.546361685E0,9.783055305E0,6.580262184E-1
6.883625262E0,-1.469193101E0,9.682557106E0,6.777670383E-1
6.900291928E0,-1.440479279E0,9.582656860E0,7.214360237E-1
6.916958594E0,-1.378265858E0,9.583254814E0,7.453642488E-1
6.933625260E0,-1.306481123E0,9.650253296E0,7.698906660E-1
6.950291926E0,-1.267597795E0,9.678967476E0,7.465606928E-1
6.966958592E0,-1.305882931E0,9.616754532E0,7.507480979E-1
6.983625258E0,-1.281954765E0,9.635896683E0,7.465606928E-1
7.000291924E0,-1.210170031E0,9.655039787E0,7.615157962E-1
7.016958590E0,-1.205384374E0,9.660423279E0,7.758727670E-1
7.033625256E0,-1.214955688E0,9.659825325E0,7.710871100E-1
7.050291922E0,-1.262812138E0,9.659825325E0,7.274180651E-1
7.066958588E0,-1.277767301E0,9.645467758E0,7.944171429E-1
7.083625254E0,-1.268794179E0,9.622138023E0,9.326026440E-1
7.100291920E0,-1.142572761E0,9.674779892E0,7.286145091E-1
7.116958586E0,-1.186241865E0,9.593423843E0,8.524430394E-1
7.133625252E0,-1.167697430E0,9.622138023E0,8.811569214E-1
7.150291918E0,-1.054636598E0,9.635896683E0,5.808576941E-1
7.166958584E0,-1.069591761E0,9.626325607E0,6.191428304E-1
7.183625250E0,-1.074975610E0,9.712467194E0,6.717849374E-1
7.200291916E0,-1.209571838E0,9.769894600E0,6.897311211E-1
7.216958582E0,-1.252642632E0,9.778867722E0,6.269195080E-1
7.233625248E0,-1.342971683E0,9.735198975E0,4.971089065E-1
7.250291914E0,-1.433898926E0,9.716055870E0,4.438686073E-1
7.266958580E0,-1.405783296E0,9.783055305E0,4.875376225E-1
7.283625246E0,-1.304686546E0,9.811769485E0,4.737788737E-1
7.300291912E0,-1.310070395E0,9.816555023E0,5.359922647E-1
7.316958578E0,-1.328614831E0,9.763913155E0,4.977070987E-1
7.333625244E0,-1.323829174E0,9.744770050E0,5.168496966E-1
7.350291910E0,-1.271785259E0,9.726225853E0,5.886343718E-1
7.366958576E0,-1.204187989E0,9.678967476E0,6.035895348E-1
7.383625242E0,-1.112662554E0,9.640682220E0,6.233302951E-1
7.400291908E0,-1.074377418E0,9.655637741E0,6.430711150E-1
7.416958574E0,-1.060618639E0,9.674779892E0,6.909275651E-1
7.433625240E0,-9.930213690E-1,9.693922997E0,6.388836503E-1
7.450291906E0,-9.930213690E-1,9.717850685E0,6.484549642E-1
7.466958572E0,-1.083948612E0,9.722038269E0,6.287141442E-1
7.483625238E0,-1.103091240E0,9.693324089E0,6.095715761E-1
7.500291904E0,-1.170090318E0,9.655039787E0,5.324030519E-1
7.516958570E0,-1.232303619E0,9.668798447E0,5.222335458E-1
7.533625236E0,-1.233500123E0,9.759725571E0,6.035895348E-1
7.550291902E0,-1.219143152E0,9.750154495E0,6.275177598E-1
7.566958568E0,-1.208973646E0,9.687940598E0,5.796613097E-1
7.583625234E0,-1.088136077E0,9.664610863E0,5.425725579E-1
7.600291900E0,-1.069591761E0,9.736394882E0,5.617151260E-1
7.616958566E0,-1.045065284E0,9.765109062E0,5.192425251E-1
7.633625232E0,-1.093519926E0,9.760323524E0,5.760720372E-1
7.650291898E0,-1.141974568E0,9.726823807E0,6.041877270E-1
7.666958564E0,-1.185045362E0,9.683753014E0,5.994020700E-1
7.683625230E0,-1.228714466E0,9.693324089E0,6.370890141E-1
7.700291896E0,-1.261615753E0,9.592227936E0,5.653043389E-1
7.716958562E0,-1.232901812E0,9.683155060E0,5.653043389E-1
7.733625228E0,-1.093519926E0,9.846465111E0,5.712863803E-1
7.750291894E0,-1.079162955E0,9.774680138E0,5.377869010E-1
7.766958560E0,-1.107876897E0,9.655039787E0,5.665007830E-1
7.783625226E0,-1.079162955E0,9.655637741E0,6.430711150E-1
7.800291892E0,-1.040279627E0,9.669396400E0,5.431707501E-1
7.816958558E0,-1.040279627E0,9.722038269E0,5.288137794E-1
7.833625224E0,-1.069591761E0,9.774680138E0,5.473581553E-1
7.850291890E0,-1.165304661E0,9.726225853E0,5.180460811E-1
7.866958556E0,-1.222732425E0,9.687940598E0,5.365904570E-1
7.883625222E0,-1.295115232E0,9.697511673E0,5.455635786E-1
7.900291888E0,-1.333400369E0,9.625128746E0,4.833501875E-1
7.916958554E0,-1.342373490E0,9.591629982E0,4.683950245E-1
7.933625220E0,-1.376471281E0,9.711270332E0,4.444667995E-1
7.950291886E0,-1.386042476E0,9.783055305E0,4.444667995E-1
7.966958552E0,-1.462612867E0,9.705886841E0,4.007977843E-1
7.983625218E0,-1.601994753E0,9.681958199E0,4.426721931E-1
8.000291884E0,-1.597209096E0,9.686744690E0,4.283152521E-1
8.016958550E0,-1.539781332E0,9.748957634E0,4.432703853E-1
8.033625216E0,-1.467996716E0,9.739386559E0,4.773681164E-1
8.050291882E0,-1.429711580E0,9.592227936E0,5.730810165E-1
8.066958548E0,-1.314257860E0,9.611370087E0,5.264210105E-1
8.083625214E0,-1.266999602E0,9.769296646E0,5.838487148E-1
8.100291880E0,-1.275972724E0,9.735796928E0,5.216353536E-1
8.116958546E0,-1.357328653E0,9.615557671E0,4.923232496E-1
8.133625212E0,-1.381256819E0,9.597013474E0,5.497509837E-1
8.150291878E0,-1.366899967E0,9.620942116E0,5.306084156E-1
8.166958544E0,-1.458425403E0,9.701699257E0,5.204389095E-1
8.183625210E0,-1.467996716E0,9.759127617E0,5.300102234E-1
8.200291876E0,-1.520638824E0,9.725028992E0,4.576273263E-1
8.216958542E0,-1.558923960E0,9.643673897E0,5.000999570E-1
8.233625208E0,-1.554138303E0,9.648459435E0,4.959124923E-1
8.250291874E0,-1.583450437E0,9.634101868E0,5.192425251E-1
8.266958540E0,-1.564307809E0,9.681958199E0,5.383850932E-1
8.283625206E0,-1.574477315E0,9.705886841E0,5.718846321E-1
8.300291872E0,-1.651047587E0,9.681958199E0,5.377869010E-1
8.316958538E0,-1.708475351E0,9.614959717E0,5.036891699E-1
8.333625204E0,-1.646261930E0,9.696315765E0,5.473581553E-1
8.350291870E0,-1.579262972E0,9.729815483E0,5.479564071E-1
8.366958536E0,-1.603191137E0,9.662816048E0,5.670989752E-1
8.383625202E0,-1.622333765E0,9.595816612E0,5.808576941E-1
8.400291868E0,-1.645663738E0,9.567103386E0,5.473581553E-1
8.416958534E0,-1.636092424E0,9.648459435E0,5.042873621E-1
8.433625200E0,-1.704287887E0,9.638887405E0,5.898307562E-1
8.450291866E0,-1.765304923E0,9.647860527E0,4.319044948E-1
8.466958532E0,-1.760519266E0,9.647860527E0,3.792623878E-1
8.483625198E0,-1.683350682E0,9.614361763E0,4.133601189E-1
8.500291864E0,-1.659422517E0,9.619147301E0,4.133601189E-1
8.516958530E0,-1.607976794E0,9.643673897E0,5.527420044E-1
8.533625196E0,-1.602592945E0,9.634101868E0,5.000999570E-1
8.550291862E0,-1.626521230E0,9.686744690E0,4.851447940E-1
8.566958528E0,-1.722832322E0,9.729216576E0,5.036891699E-1
8.583625194E0,-1.688734531E0,9.662816048E0,4.803591371E-1
8.600291860E0,-1.665404558E0,9.528818130E0,5.665007830E-1
8.616958526E0,-1.719243050E0,9.772886276E0,6.329016089E-1
8.633625192E0,-1.666002750E0,9.787242889E0,6.137589812E-1
8.650291858E0,-1.463809252E0,9.597013474E0,6.203392744E-1
8.666958524E0,-1.377069473E0,9.486943245E0,6.550351977E-1
8.683625190E0,-1.295713425E0,9.559326172E0,7.082754970E-1
8.700291856E0,-1.238285661E0,9.698110580E0,6.418746710E-1
8.716958522E0,-1.233500123E0,9.712467194E0,6.801598072E-1
8.733625188E0,-1.258026481E0,9.717252731E0,7.704889178E-1
8.750291854E0,-1.368096352E0,9.621540070E0,7.220342159E-1
8.766958520E0,-1.387238979E0,9.597013474E0,6.927221417E-1
8.783625186E0,-1.329811215E0,9.678369522E0,6.646065116E-1
8.800291852E0,-1.339382529E0,9.721440315E0,6.837490797E-1
8.816958518E0,-1.335195065E0,9.735796928E0,7.363911867E-1
8.833625184E0,-1.305284739E0,9.687940598E0,6.604190469E-1
8.850291850E0,-1.272383451E0,9.726823807E0,6.795616150E-1
8.866958516E0,-1.229312658E0,9.693324089E0,7.280163169E-1
8.883625182E0,-1.286740422E0,9.607182503E0,7.561319470E-1
8.900291848E0,-1.301097274E0,9.626325607E0,7.794619799E-1
8.916958514E0,-1.296311617E0,9.731609344E0,7.274180651E-1
8.933625180E0,-1.348953724E0,9.626325607E0,7.172485590E-1
8.950291846E0,-1.392024517E0,9.592227936E0,6.592226624E-1
8.966958512E0,-1.334596872E0,9.693324089E0,7.316055298E-1
8.983625178E0,-1.306481123E0,9.731609344E0,7.507480979E-1
9.000291844E0,-1.315454245E0,9.678967476E0,6.789634228E-1
9.016958510E0,-1.411765337E0,9.649655342E0,6.975077987E-1
9.033625176E0,-1.464407444E0,9.683155060E0,6.634100676E-1
9.050291842E0,-1.383051515E0,9.726225853E0,6.879364848E-1
9.066958508E0,-1.387238979E0,9.697511673E0,6.687939167E-1
9.083625174E0,-1.483550072E0,9.630513191E0,6.969096065E-1
9.100291840E0,-1.473978758E0,9.611370087E0,6.586244106E-1
9.116958506E0,-1.435693622E0,9.668798447E0,6.640082598E-1
9.133625172E0,-1.406381488E0,9.692726135E0,6.879364848E-1
9.150291838E0,-1.310668588E0,9.707681656E0,7.178468108E-1
9.166958504E0,-1.320838094E0,9.678967476E0,7.746763229E-1
9.183625170E0,-1.272383451E0,9.655039787E0,7.417750359E-1
9.200291836E0,-1.233500123E0,9.678967476E0,7.040880919E-1
9.216958502E0,-1.180858016E0,9.745966911E0,6.993024349E-1
9.233625168E0,-1.181456208E0,9.693324089E0,7.471588850E-1
9.250291834E0,-1.185643673E0,9.645467758E0,7.328019142E-1
9.266958500E0,-1.209571838E0,9.559326172E0,7.136593461E-1
9.283625166E0,-1.243071318E0,9.640682220E0,6.897311211E-1
9.300291832E0,-1.368096352E0,9.702297211E0,6.598208547E-1
9.316958498E0,-1.459621787E0,9.673583984E0,6.729813814E-1
9.333625164E0,-1.512263894E0,9.640084267E0,6.729813814E-1
9.350291830E0,-1.574477315E0,9.591629982E0,6.723831892E-1
9.366958496E0,-1.631905079E0,9.601201057E0,6.191428304E-1
9.383625162E0,-1.593619823E0,9.716055870E0,6.149554253E-1
9.400291828E0,-1.584646821E0,9.730413437E0,6.580262184E-1
9.416958494E0,-1.618146300E0,9.668199539E0,6.669993401E-1
9.433625160E0,-1.676172256E0,9.644271851E0,6.903293133E-1
9.450291826E0,-1.714457393E0,9.601201057E0,6.807580590E-1
9.466958492E0,-1.680359721E0,9.562915802E0,6.329016089E-1
9.483625158E0,-1.632503271E0,9.677172661E0,6.239284873E-1
9.500291824E0,-1.536790371E0,9.797411919E0,6.532405615E-1
9.516958490E0,-1.541576028E0,9.711270332E0,6.723831892E-1
9.533625156E0,-1.603191137E0,9.519845009E0,6.861419082E-1
9.550291822E0,-1.570289850E0,9.525228500E0,7.298108935E-1
9.566958488E0,-1.497906923E0,9.649655342E0,6.873382926E-1
9.583625154E0,-1.502692580E0,9.744770050E0,6.251249313E-1
9.600291820E0,-1.488335729E0,9.739984512E0,6.490531564E-1
9.616958486E0,-1.469193101E0,9.644869804E0,6.681957245E-1
9.633625152E0,-1.401595831E0,9.625727654E0,6.735795736E-1
9.650291818E0,-1.372882009E0,9.707083702E0,6.358926296E-1
9.666958484E0,-1.406381488E0,9.673583984E0,6.544370055E-1
9.683625150E0,-1.444666624E0,9.640084267E0,6.161518097E-1
9.700291816E0,-1.492523074E0,9.620343208E0,6.442674994E-1
9.716958482E0,-1.420738459E0,9.635298729E0,6.879364848E-1
9.733625148E0,-1.406381488E0,9.668798447E0,6.927221417E-1
9.750291814E0,-1.325025558E0,9.759725571E0,6.412764788E-1
9.766958480E0,-1.382453322E0,9.673583984E0,6.406782866E-1
9.783625146E0,-1.420738459E0,9.654440880E0,6.352944374E-1
9.800291812E0,-1.415952802E0,9.678369522E0,6.687939167E-1
9.816958478E0,-1.382453322E0,9.630513191E0,6.741777658E-1
9.833625144E0,-1.382453322E0,9.625727654E0,6.502495408E-1
9.850291810E0,-1.482951880E0,9.592227936E0,6.299105883E-1
9.866958476E0,-1.517049551E0,9.610772133E0,6.299105883E-1
9.883625142E0,-1.526022673E0,9.711270332E0,5.724828243E-1
9.900291808E0,-1.497308731E0,9.763913155E0,5.676971674E-1
9.916958474E0,-1.593021631E0,9.605388641E0,5.527420044E-1
9.933625140E0,-1.627119422E0,9.534201622E0,5.952146053E-1
9.950291806E0,-1.511067510E0,9.577272415E0,5.533402562E-1
9.966958472E0,-1.347757339E0,9.659226418E0,5.449653864E-1
9.983625138E0,-1.219143152E0,9.778867722E0,6.227321029E-1
1.000029180E1,-1.243071318E0,9.712467194E0,6.370890141E-1
1.001695847E1,-1.281954765E0,9.650253296E0,7.561319470E-1
1.003362514E1,-1.160519004E0,9.683753014E0,5.850451589E-1
1.005029180E1,-1.107876897E0,9.678967476E0,5.808576941E-1
1.006695847E1,-1.079761267E0,9.784252167E0,6.239284873E-1
1.008362513E1,-1.185045362E0,9.712467194E0,5.850451589E-1
1.010029180E1,-1.314257860E0,9.620942116E0,5.694918036E-1
1.011695847E1,-1.420140266E0,9.687342644E0,5.635097623E-1
1.013362513E1,-1.434497118E0,9.720842361E0,5.682953596E-1
1.015029180E1,-1.554736495E0,9.663414001E0,5.958128572E-1
1.016695846E1,-1.622333765E0,9.586843491E0,6.143572330E-1
1.018362513E1,-1.588834286E0,9.586843491E0,6.101697683E-1
1.020029180E1,-1.559522152E0,9.720243454E0,4.857429862E-1
1.021695846E1,-1.511665702E0,9.744172096E0,5.006981492E-1
1.023362513E1,-1.530808330E0,9.658628464E0,5.916253924E-1
1.025029179E1,-1.554736495E0,9.591629982E0,6.005984545E-1
1.026695846E1,-1.463809252E0,9.625727654E0,6.065805554E-1
1.028362513E1,-1.516451359E0,9.687342644E0,5.868397355E-1
1.030029179E1,-1.488335729E0,9.783055305E0,6.011967063E-1
1.031695846E1,-1.444666624E0,9.768698692E0,5.539384484E-1
1.033362512E1,-1.477568030E0,9.577272415E0,5.204389095E-1
1.035029179E1,-1.405783296E0,9.639486313E0,5.401797295E-1
1.036695846E1,-1.271187067E0,9.668798447E0,5.455635786E-1
1.038362512E1,-1.295115232E0,9.731011391E0,5.742774606E-1
1.040029179E1,-1.319641709E0,9.778867722E0,5.982056856E-1
1.041695845E1,-1.304686546E0,9.778867722E0,5.312066078E-1
1.043362512E1,-1.333400369E0,9.649655342E0,5.359922647E-1
1.045029179E1,-1.328614831E0,9.582656860E0,5.599204898E-1
1.046695845E1,-1.218544960E0,9.607182503E0,6.083751321E-1
1.048362512E1,-1.194616675E0,9.659825325E0,5.844469070E-1
1.050029178E1,-1.170688510E0,9.807581902E0,5.419743061E-1
1.051695845E1,-1.246660590E0,9.783653259E0,4.887340367E-1
1.053362512E1,-1.280758262E0,9.697511673E0,5.455635786E-1
1.055029178E1,-1.252044439E0,9.640084267E0,5.605186820E-1
1.056695845E1,-1.261615753E0,9.649655342E0,5.694918036E-1
1.058362511E1,-1.285543919E0,9.644869804E0,5.647061467E-1
1.060029178E1,-1.266401410E0,9.707083702E0,5.222335458E-1
1.061695845E1,-1.174875975E0,9.740582466E0,5.036891699E-1
1.063362511E1,-1.179661512E0,9.726225853E0,4.941178858E-1
1.065029178E1,-1.204187989E0,9.674181938E0,6.083751321E-1
1.066695844E1,-1.184447169E0,9.650253296E0,5.659025311E-1
1.068362511E1,-1.170090318E0,9.640682220E0,5.276173949E-1
1.070029178E1,-1.175474167E0,9.693324089E0,6.281159520E-1
1.071695844E1,-1.121635556E0,9.712467194E0,5.234299302E-1
1.073362511E1,-1.174875975E0,9.759725571E0,4.941178858E-1
1.075029177E1,-1.198804140E0,9.802796364E0,4.893322289E-1
1.076695844E1,-1.223330617E0,9.774082184E0,5.222335458E-1
1.078362511E1,-1.318445325E0,9.683155060E0,4.833501875E-1
1.080029177E1,-1.314257860E0,9.683155060E0,5.024927258E-1
1.081695844E1,-1.261017561E0,9.654440880E0,4.791627228E-1
1.083362510E1,-1.237089276E0,9.668798447E0,4.695914388E-1
1.085029177E1,-1.194018483E0,9.745368004E0,5.371887088E-1
1.086695844E1,-1.217946768E0,9.668798447E0,5.126622319E-1
1.088362510E1,-1.304088354E0,9.711869240E0,4.833501875E-1
1.090029177E1,-1.261615753E0,9.783653259E0,4.935196638E-1
1.091695843E1,-1.261017561E0,9.687940598E0,5.270192027E-1
1.093362510E1,-1.227517962E0,9.673583984E0,5.365904570E-1
1.095029177E1,-1.174875975E0,9.702896118E0,5.802595019E-1
1.096695843E1,-1.165304661E0,9.664610863E0,5.946164131E-1
1.098362510E1,-1.185045362E0,9.645467758E0,6.083751321E-1
1.100029176E1,-1.228116274E0,9.726225853E0,5.748756528E-1
1.101695843E1,-1.256830096E0,9.735796928E0,5.742774606E-1
1.103362510E1,-1.333998680E0,9.687940598E0,5.593222976E-1
1.105029176E1,-1.329213023E0,9.697511673E0,5.742774606E-1
1.106695843E1,-1.328614831E0,9.692726135E0,5.551348329E-1
1.108362509E1,-1.314257860E0,9.659226418E0,5.838487148E-1
1.110029176E1,-1.314856052E0,9.668798447E0,6.029912829E-1
1.111695843E1,-1.256830096E0,9.707083702E0,5.940182209E-1
1.113362509E1,-1.185045362E0,9.774680138E0,6.131607890E-1
1.115029176E1,-1.247856975E0,9.693324089E0,6.514459848E-1
1.116695842E1,-1.247856975E0,9.678967476E0,6.747759581E-1
1.118362509E1,-1.262213945E0,9.678967476E0,6.556333899E-1
1.120029176E1,-1.271785259E0,9.659226418E0,6.412764788E-1
1.121695842E1,-1.233500123E0,9.702896118E0,6.370890141E-1
1.123362509E1,-1.195214868E0,9.750752449E0,6.610172391E-1
1.125029175E1,-1.233500123E0,9.659825325E0,6.418746710E-1
1.126695842E1,-1.281356573E0,9.616754532E0,6.699903607E-1
1.128362509E1,-1.305882931E0,9.645467758E0,7.034898400E-1
1.130029175E1,-1.310070395E0,9.707083702E0,6.508477330E-1
1.131695842E1,-1.353739381E0,9.716654778E0,6.311069727E-1
1.133362508E1,-1.396810174E0,9.687940598E0,6.406782866E-1
1.135029175E1,-1.377069473E0,9.654440880E0,6.167500615E-1
1.136695842E1,-1.381855130E0,9.654440880E0,6.263213158E-1
1.138362508E1,-1.367498159E0,9.692726135E0,6.215356588E-1
1.140029175E1,-1.367498159E0,9.740582466E0,5.928218365E-1
1.141695841E1,-1.396211982E0,9.678369522E0,5.832505226E-1
1.143362508E1,-1.396211982E0,9.630513191E0,6.209374666E-1
1.145029175E1,-1.391426325E0,9.616155624E0,6.358926296E-1
1.146695841E1,-1.372283816E0,9.659226418E0,6.263213158E-1
1.148362508E1,-1.343569875E0,9.711869240E0,6.119644046E-1
1.150029174E1,-1.353141189E0,9.668798447E0,6.263213158E-1
1.151695841E1,-1.343569875E0,9.649655342E0,6.263213158E-1
1.153362508E1,-1.300499082E0,9.673583984E0,6.221339107E-1
1.155029174E1,-1.300499082E0,9.692726135E0,6.364908218E-1
1.156695841E1,-1.300499082E0,9.707083702E0,6.173482537E-1
1.158362507E1,-1.319641709E0,9.683155060E0,5.934200287E-1
1.160029174E1,-1.324427366E0,9.692726135E0,6.263213158E-1
1.161695841E1,-1.353739381E0,9.664012909E0,6.502495408E-1
1.163362507E1,-1.344168067E0,9.654440880E0,6.646065116E-1
1.165029174E1,-1.319641709E0,9.654440880E0,6.221339107E-1
1.166695840E1,-1.353141189E0,9.664012909E0,5.928218365E-1
1.168362507E1,-1.338784218E0,9.673583984E0,5.880361795E-1
1.170029174E1,-1.310070395E0,9.716654778E0,6.077769399E-1
1.171695840E1,-1.329213023E0,9.683155060E0,6.311069727E-1
1.173362507E1,-1.363310695E0,9.644869804E0,6.406782866E-1
1.175029173E1,-1.363310695E0,9.649655342E0,6.454638839E-1
1.176695840E1,-1.362712502E0,9.678369522E0,5.736792088E-1
1.178362507E1,-1.329213023E0,9.731011391E0,5.928218365E-1
1.180029173E1,-1.353141189E0,9.664012909E0,5.928218365E-1
1.181695840E1,-1.377667665E0,9.644869804E0,6.693921089E-1
1.183362506E1,-1.310070395E0,9.697511673E0,6.317051649E-1
1.185029173E1,-1.290927768E0,9.707083702E0,6.173482537E-1
1.186695840E1,-1.276570916E0,9.692726135E0,6.412764788E-1
1.188362506E1,-1.257428288E0,9.669396400E0,6.699903607E-1
1.190029173E1,-1.276570916E0,9.655039787E0,6.699903607E-1
1.191695839E1,-1.329213023E0,9.659226418E0,6.119644046E-1
1.193362506E1,-1.333998680E0,9.668798447E0,5.784648657E-1
1.195029173E1,-1.319641709E0,9.683155060E0,6.077769399E-1
1.196695839E1,-1.276570916E0,9.702297211E0,6.412764788E-1
1.198362506E1,-1.252642632E0,9.697511673E0,6.269195080E-1
1.200029172E1,-1.271785259E0,9.669396400E0,6.604190469E-1
1.201695839E1,-1.295713425E0,9.668798447E0,6.604190469E-1
1.203362506E1,-1.290927768E0,9.711869240E0,6.508477330E-1
1.205029172E1,-1.319641709E0,9.697511673E0,6.215356588E-1
1.206695839E1,-1.324427366E0,9.692726135E0,6.215356588E-1
1.208362505E1,-1.252642632E0,9.693324089E0,6.652047038E-1
1.210029172E1,-1.262213945E0,9.640682220E0,6.556333899E-1
1.211695839E1,-1.252642632E0,9.669396400E0,6.466603279E-1
1.213362505E1,-1.300499082E0,9.678967476E0,6.747759581E-1
1.215029172E1,-1.286740422E0,9.707681656E0,6.843472719E-1
1.216695838E1,-1.286740422E0,9.702896118E0,6.843472719E-1
1.218362505E1,-1.325025558E0,9.669396400E0,7.028916478E-1
1.220029172E1,-1.305882931E0,9.655039787E0,6.987041831E-1
1.221695838E1,-1.319641709E0,9.659825325E0,6.646065116E-1
1.223362505E1,-1.305882931E0,9.721440315E0,6.699903607E-1
1.225029171E1,-1.343569875E0,9.711869240E0,6.215356588E-1
1.226695838E1,-1.353739381E0,9.707083702E0,6.933203340E-1
1.228362505E1,-1.348355532E0,9.635298729E0,6.550351977E-1
1.230029171E1,-1.310070395E0,9.616754532E0,6.604190469E-1
1.231695838E1,-1.324427366E0,9.664012909E0,6.502495408E-1
1.233362504E1,-1.314856052E0,9.716654778E0,6.317051649E-1
1.235029171E1,-1.320239902E0,9.726225853E0,6.406782866E-1
1.236695838E1,-1.343569875E0,9.659226418E0,6.311069727E-1
1.238362504E1,-1.353141189E0,9.664012909E0,6.167500615E-1
1.240029171E1,-1.367498159E0,9.644869804E0,6.119644046E-1
1.241695837E1,-1.386640668E0,9.668798447E0,6.023930907E-1
1.243362504E1,-1.396211982E0,9.664012909E0,5.976074338E-1
1.245029171E1,-1.435095429E0,9.644869804E0,6.161518097E-1
1.246695837E1,-1.444666624E0,9.664012909E0,6.400800347E-1
1.248362504E1,-1.401595831E0,9.683155060E0,6.257231236E-1
1.250029170E1,-1.363310695E0,9.678369522E0,6.406782866E-1
1.251695837E1,-1.363310695E0,9.668798447E0,6.837490797E-1
1.253362504E1,-1.344168067E0,9.655039787E0,7.363911867E-1
1.255029170E1,-1.306481123E0,9.674181938E0,7.651050687E-1
1.256695837E1,-1.277169108E0,9.698110580E0,7.609176040E-1
1.258362503E1,-1.315454245E0,9.645467758E0,7.651050687E-1
1.260029170E1,-1.329811215E0,9.626325607E0,7.651050687E-1
1.261695837E1,-1.339980721E0,9.683753014E0,7.507480979E-1
1.263362503E1,-1.373480201E0,9.707681656E0,7.459624410E-1
1.265029170E1,-1.363908887E0,9.678967476E0,7.603194118E-1
1.266695836E1,-1.339382529E0,9.626325607E0,7.411768436E-1
1.268362503E1,-1.348953724E0,9.640682220E0,7.268198729E-1
1.270029170E1,-1.334596872E0,9.664610863E0,7.124629617E-1
1.271695836E1,-1.377667665E0,9.659226418E0,7.070791125E-1
1.273362503E1,-1.401595831E0,9.659226418E0,6.975077987E-1
1.275029169E1,-1.435095429E0,9.659226418E0,6.687939167E-1
1.276695836E1,-1.449452281E0,9.664012909E0,6.400800347E-1
1.278362503E1,-1.435095429E0,9.697511673E0,6.305087805E-1
1.280029169E1,-1.454237938E0,9.687940598E0,6.496513486E-1
1.281695836E1,-1.454237938E0,9.649655342E0,6.400800347E-1
1.283362502E1,-1.478166223E0,9.640084267E0,6.538388133E-1
1.285029169E1,-1.444666624E0,9.673583984E0,6.592226624E-1
1.286695836E1,-1.439880967E0,9.668798447E0,6.496513486E-1
1.288362502E1,-1.449452281E0,9.640084267E0,6.496513486E-1
1.290029169E1,-1.406381488E0,9.687940598E0,6.305087805E-1
1.291695835E1,-1.406381488E0,9.664012909E0,6.448656917E-1
1.293362502E1,-1.382453322E0,9.668798447E0,6.502495408E-1
1.295029169E1,-1.348355532E0,9.683155060E0,6.454638839E-1
1.296695835E1,-1.372882009E0,9.649655342E0,6.646065116E-1
1.298362502E1,-1.372882009E0,9.649655342E0,6.646065116E-1
1.300029168E1,-1.377667665E0,9.668798447E0,6.550351977E-1
1.301695835E1,-1.362712502E0,9.630513191E0,6.502495408E-1
1.303362502E1,-1.348953724E0,9.673583984E0,6.693921089E-1
1.305029168E1,-1.339382529E0,9.711869240E0,6.789634228E-1
1.306695835E1,-1.382453322E0,9.692726135E0,6.550351977E-1
1.308362501E1,-1.367498159E0,9.692726135E0,6.311069727E-1
1.310029168E1,-1.372882009E0,9.673583984E0,6.598208547E-1
1.311695835E1,-1.415952802E0,9.640084267E0,6.640082598E-1
1.313362501E1,-1.415952802E0,9.640084267E0,6.687939167E-1
1.315029168E1,-1.387238979E0,9.649655342E0,6.358926296E-1
1.316695834E1,-1.363310695E0,9.673583984E0,6.550351977E-1
1.318362501E1,-1.344168067E0,9.668798447E0,6.693921089E-1
1.320029168E1,-1.334596872E0,9.654440880E0,6.646065116E-1
1.321695834E1,-1.339382529E0,9.683155060E0,6.550351977E-1
1.323362501E1,-1.329811215E0,9.750154495E0,6.598208547E-1
1.325029167E1,-1.334596872E0,9.702297211E0,6.550351977E-1
1.326695834E1,-1.343569875E0,9.654440880E0,6.502495408E-1
1.328362501E1,-1.353739381E0,9.678369522E0,6.741777658E-1
1.330029167E1,-1.338784218E0,9.673583984E0,6.406782866E-1
1.331695834E1,-1.338784218E0,9.659226418E0,6.454638839E-1
1.333362500E1,-1.329213023E0,9.659226418E0,6.502495408E-1
1.335029167E1,-1.324427366E0,9.654440880E0,6.598208547E-1
1.336695834E1,-1.334596872E0,9.664012909E0,6.646065116E-1
1.338362500E1,-1.372882009E0,9.673583984E0,6.502495408E-1
1.340029167E1,-1.358525038E0,9.687940598E0,6.502495408E-1
1.341695833E1,-1.377667665E0,9.692726135E0,6.215356588E-1
1.343362500E1,-1.415952802E0,9.692726135E0,6.352944374E-1
1.345029167E1,-1.425524116E0,9.702297211E0,6.065805554E-1
1.346695833E1,-1.430309772E0,9.677771568E0,5.874379873E-1
1.348362500E1,-1.449452281E0,9.663414001E0,5.922235847E-1
1.350029166E1,-1.459023595E0,9.625727654E0,6.209374666E-1
1.351695833E1,-1.439880967E0,9.620942116E0,6.592226624E-1
1.353362500E1,-1.425524116E0,9.659226418E0,6.161518097E-1
1.355029166E1,-1.348355532E0,9.726225853E0,6.263213158E-1
1.356695833E1,-1.439880967E0,9.625727654E0,6.400800347E-1
1.358362499E1,-1.449452281E0,9.640084267E0,6.544370055E-1
1.360029166E1,-1.435095429E0,9.673583984E0,6.496513486E-1
1.361695833E1,-1.420738459E0,9.668798447E0,6.352944374E-1
1.363362499E1,-1.396810174E0,9.668798447E0,6.263213158E-1
1.365029166E1,-1.387238979E0,9.692726135E0,6.789634228E-1
1.366695832E1,-1.392024517E0,9.707083702E0,6.592226624E-1
1.368362499E1,-1.396810174E0,9.702297211E0,6.496513486E-1
1.370029166E1,-1.401595831E0,9.659226418E0,6.352944374E-1
1.371695832E1,-1.420738459E0,9.640084267E0,6.831508875E-1
1.373362499E1,-1.420738459E0,9.668798447E0,6.305087805E-1
1.375029165E1,-1.411167145E0,9.687940598E0,6.305087805E-1
1.376695832E1,-1.401595831E0,9.654440880E0,6.305087805E-1
1.378362499E1,-1.377667665E0,9.664012909E0,6.550351977E-1
1.380029165E1,-1.401595831E0,9.664012909E0,6.161518097E-1
1.381695832E1,-1.406381488E0,9.692726135E0,6.257231236E-1
1.383362498E1,-1.425524116E0,9.711270332E0,6.161518097E-1
1.385029165E1,-1.454237938E0,9.678369522E0,6.113662124E-1
1.386695832E1,-1.449452281E0,9.654440880E0,6.305087805E-1
1.388362498E1,-1.406381488E0,9.635298729E0,6.496513486E-1
1.390029165E1,-1.401595831E0,9.635298729E0,6.448656917E-1
1.391695831E1,-1.391426325E0,9.654440880E0,6.215356588E-1
1.393362498E1,-1.396810174E0,9.697511673E0,6.209374666E-1
1.395029165E1,-1.382453322E0,9.721440315E0,6.454638839E-1
1.396695831E1,-1.425524116E0,9.654440880E0,6.592226624E-1
1.398362498E1,-1.396810174E0,9.654440880E0,6.592226624E-1
1.400029164E1,-1.372882009E0,9.673583984E0,6.454638839E-1
1.401695831E1,-1.363310695E0,9.678369522E0,6.406782866E-1
1.403362498E1,-1.372283816E0,9.664012909E0,6.311069727E-1
1.405029164E1,-1.392024517E0,9.640084267E0,6.550351977E-1
1.406695831E1,-1.406381488E0,9.664012909E0,6.496513486E-1
1.408362497E1,-1.425524116E0,9.678369522E0,6.640082598E-1
1.410029164E1,-1.430309772E0,9.673583984E0,6.305087805E-1
1.411695831E1,-1.468594909E0,9.668199539E0,6.203392744E-1
1.413362497E1,-1.430309772E0,9.673583984E0,6.257231236E-1
1.415029164E1,-1.439880967E0,9.630513191E0,6.448656917E-1
1.416695830E1,-1.435095429E0,9.640084267E0,6.305087805E-1
1.418362497E1,-1.430309772E0,9.640084267E0,6.496513486E-1
1.420029164E1,-1.430309772E0,9.654440880E0,6.496513486E-1
1.421695830E1,-1.444666624E0,9.664012909E0,6.544370055E-1
1.423362497E1,-1.420738459E0,9.664012909E0,6.305087805E-1
1.425029163E1,-1.396211982E0,9.640084267E0,6.263213158E-1
1.426695830E1,-1.415952802E0,9.664012909E0,6.448656917E-1
1.428362497E1,-1.435095429E0,9.673583984E0,6.305087805E-1
1.430029163E1,-1.435095429E0,9.716654778E0,6.352944374E-1
1.431695830E1,-1.420738459E0,9.692726135E0,6.352944374E-1
1.433362496E1,-1.411167145E0,9.644869804E0,6.448656917E-1
1.435029163E1,-1.430309772E0,9.606584549E0,6.783652306E-1
1.436695830E1,-1.425524116E0,9.630513191E0,6.592226624E-1
1.438362496E1,-1.411167145E0,9.673583984E0,6.257231236E-1
1.440029163E1,-1.401595831E0,9.678369522E0,6.352944374E-1
1.441695829E1,-1.420738459E0,9.649655342E0,6.161518097E-1
1.443362496E1,-1.401595831E0,9.692726135E0,6.640082598E-1
1.445029163E1,-1.401595831E0,9.697511673E0,6.544370055E-1
1.446695829E1,-1.392024517E0,9.664012909E0,6.406782866E-1
1.448362496E1,-1.401595831E0,9.640084267E0,6.496513486E-1
1.450029162E1,-1.411167145E0,9.649655342E0,6.305087805E-1
1.451695829E1,-1.430309772E0,9.659226418E0,6.592226624E-1
1.453362496E1,-1.406381488E0,9.678369522E0,6.544370055E-1
1.455029162E1,-1.411167145E0,9.659226418E0,6.544370055E-1
1.456695829E1,-1.411167145E0,9.683155060E0,6.448656917E-1
1.458362495E1,-1.415952802E0,9.654440880E0,6.735795736E-1
1.460029162E1,-1.411167145E0,9.673583984E0,6.352944374E-1
1.461695829E1,-1.372882009E0,9.678369522E0,6.502495408E-1
1.463362495E1,-1.382453322E0,9.678369522E0,6.454638839E-1
1.465029162E1,-1.387238979E0,9.654440880E0,6.735795736E-1
1.466695828E1,-1.353739381E0,9.678369522E0,6.741777658E-1
1.468362495E1,-1.368096352E0,9.678369522E0,6.646065116E-1
1.470029162E1,-1.392024517E0,9.664012909E0,6.831508875E-1
1.471695828E1,-1.396810174E0,9.649655342E0,6.592226624E-1
1.473362495E1,-1.392024517E0,9.683155060E0,6.550351977E-1
1.475029161E1,-1.363310695E0,9.711869240E0,6.598208547E-1
1.476695828E1,-1.387238979E0,9.654440880E0,6.502495408E-1
1.478362495E1,-1.406381488E0,9.640084267E0,6.879364848E-1
1.480029161E1,-1.406381488E0,9.649655342E0,6.640082598E-1
1.481695828E1,-1.420738459E0,9.654440880E0,6.400800347E-1
1.483362494E1,-1.459023595E0,9.659226418E0,6.257231236E-1
1.485029161E1,-1.468594909E0,9.707083702E0,6.394818425E-1
1.486695828E1,-1.478166223E0,9.659226418E0,6.346961856E-1
1.488362494E1,-1.449452281E0,9.644869804E0,6.544370055E-1
1.490029161E1,-1.420738459E0,9.659226418E0,6.640082598E-1
1.491695827E1,-1.415952802E0,9.673583984E0,6.592226624E-1
1.493362494E1,-1.415952802E0,9.668798447E0,6.448656917E-1
1.495029161E1,-1.415952802E0,9.664012909E0,6.640082598E-1
1.496695827E1,-1.459023595E0,9.668798447E0,6.448656917E-1
1.498362494E1,-1.444666624E0,9.664012909E0,6.352944374E-1
1.500029160E1,-1.425524116E0,9.649655342E0,6.544370055E-1
1.501695827E1,-1.386640668E0,9.640084267E0,6.167500615E-1
1.503362494E1,-1.353739381E0,9.635298729E0,6.646065116E-1
1.505029160E1,-1.358525038E0,9.664012909E0,6.693921089E-1
1.506695827E1,-1.339382529E0,9.697511673E0,6.550351977E-1
1.508362493E1,-1.377667665E0,9.687940598E0,6.311069727E-1
1.510029160E1,-1.435095429E0,9.654440880E0,6.448656917E-1
1.511695827E1,-1.401595831E0,9.687940598E0,6.448656917E-1
1.513362493E1,-1.363310695E0,9.707083702E0,6.646065116E-1
1.515029160E1,-1.339382529E0,9.683155060E0,6.502495408E-1
1.516695826E1,-1.329213023E0,9.683155060E0,6.358926296E-1
1.518362493E1,-1.325025558E0,9.692726135E0,6.741777658E-1
1.520029160E1,-1.296311617E0,9.698110580E0,6.891329288E-1
1.521695826E1,-1.276570916E0,9.635896683E0,6.939185858E-1
1.523362493E1,-1.305882931E0,9.616754532E0,7.322037220E-1
1.525029159E1,-1.305882931E0,9.645467758E0,7.178468108E-1
1.526695826E1,-1.310668588E0,9.693324089E0,7.034898400E-1
1.528362493E1,-1.310070395E0,9.692726135E0,6.460621357E-1
1.530029159E1,-1.343569875E0,9.616754532E0,6.550351977E-1
1.531695826E1,-1.396810174E0,9.644869804E0,6.640082598E-1
1.533362492E1,-1.411167145E0,9.668798447E0,6.687939167E-1
1.535029159E1,-1.401595831E0,9.678369522E0,6.496513486E-1
1.536695826E1,-1.425524116E0,9.668798447E0,6.544370055E-1
1.538362492E1,-1.425524116E0,9.635298729E0,6.687939167E-1
1.540029159E1,-1.415952802E0,9.616155624E0,6.975077987E-1
1.541695825E1,-1.411167145E0,9.659226418E0,6.927221417E-1
1.543362492E1,-1.411167145E0,9.668798447E0,6.879364848E-1
1.545029159E1,-1.411765337E0,9.692726135E0,7.262216806E-1
1.546695825E1,-1.339980721E0,9.717252731E0,7.363911867E-1
1.548362492E1,-1.368694544E0,9.664610863E0,7.507480979E-1
1.550029158E1,-1.359123230E0,9.655039787E0,7.986045480E-1
1.551695825E1,-1.335195065E0,9.664610863E0,8.081758618E-1
1.553362492E1,-1.292124271E0,9.674181938E0,7.848458290E-1
1.555029158E1,-1.238883972E0,9.683753014E0,7.423732281E-1
1.556695825E1,-1.210170031E0,9.717252731E0,7.375875711E-1
1.558362491E1,-1.277169108E0,9.683753014E0,7.417750359E-1
1.560029158E1,-1.344168067E0,9.645467758E0,7.268198729E-1
1.561695825E1,-1.325025558E0,9.640682220E0,7.220342159E-1
1.563362491E1,-1.277169108E0,9.678967476E0,6.987041831E-1
1.565029158E1,-1.334596872E0,9.654440880E0,6.741777658E-1
1.566695824E1,-1.368096352E0,9.687940598E0,6.550351977E-1
1.568362491E1,-1.392024517E0,9.697511673E0,6.215356588E-1
1.570029158E1,-1.406381488E0,9.678369522E0,6.161518097E-1
1.571695824E1,-1.415952802E0,9.659226418E0,6.352944374E-1
1.573362491E1,-1.444666624E0,9.668798447E0,6.544370055E-1
1.575029157E1,-1.435095429E0,9.687940598E0,6.448656917E-1
1.576695824E1,-1.430309772E0,9.668798447E0,6.448656917E-1
1.578362491E1,-1.430309772E0,9.644869804E0,6.448656917E-1
1.580029157E1,-1.425524116E0,9.640084267E0,6.687939167E-1
1.581695824E1,-1.425524116E0,9.659226418E0,6.783652306E-1
1.583362490E1,-1.425524116E0,9.683155060E0,6.544370055E-1
1.585029157E1,-1.459023595E0,9.683155060E0,6.305087805E-1
1.586695824E1,-1.459621787E0,9.697511673E0,6.640082598E-1
1.588362490E1,-1.415952802E0,9.702297211E0,6.735795736E-1
1.590029157E1,-1.382453322E0,9.659226418E0,6.885347366E-1
1.591695823E1,-1.363310695E0,9.654440880E0,6.933203340E-1
1.593362490E1,-1.353739381E0,9.664012909E0,6.837490797E-1
1.595029157E1,-1.363310695E0,9.692726135E0,7.172485590E-1
1.596695823E1,-1.325025558E0,9.707681656E0,6.981059909E-1
1.598362490E1,-1.305882931E0,9.678967476E0,6.987041831E-1
1.600029156E1,-1.319641709E0,9.640682220E0,6.741777658E-1
1.601695823E1,-1.344168067E0,9.621540070E0,7.555337548E-1
1.603362490E1,-1.300499082E0,9.626325607E0,6.364908218E-1
1.605029156E1,-1.290927768E0,9.673583984E0,6.269195080E-1
1.606695823E1,-1.382453322E0,9.716654778E0,6.741777658E-1
1.608362489E1,-1.415354609E0,9.635298729E0,6.065805554E-1
1.610029156E1,-1.463809252E0,9.597013474E0,6.352944374E-1
1.611695823E1,-1.424327731E0,9.672985077E0,4.917250574E-1
1.613362489E1,-1.453639746E0,9.696913719E0,4.821537733E-1
1.615029156E1,-1.511067510E0,9.763314247E0,4.815555513E-1
1.616695822E1,-1.483550072E0,9.749555588E0,6.059823632E-1
1.618362489E1,-1.483550072E0,9.635298729E0,6.538388133E-1
1.620029156E1,-1.444666624E0,9.530014038E0,6.783652306E-1
1.621695822E1,-1.362712502E0,9.602396965E0,6.646065116E-1
1.623362489E1,-1.338784218E0,9.668798447E0,5.928218365E-1
1.625029155E1,-1.338784218E0,9.740582466E0,5.736792088E-1
1.626695822E1,-1.382453322E0,9.831509590E0,6.358926296E-1
1.628362489E1,-1.310668588E0,9.764511108E0,6.652047038E-1
1.630029155E1,-1.316052437E0,9.598209381E0,8.177471161E-1
1.631695822E1,-1.268195987E0,9.555138588E0,8.709874153E-1
1.633362488E1,-1.185045362E0,9.593423843E0,7.088736892E-1
1.635029155E1,-1.272383451E0,9.750752449E0,7.226324677E-1
1.636695822E1,-1.301097274E0,9.803394318E0,7.082754970E-1
1.638362488E1,-1.387238979E0,9.635298729E0,6.981059909E-1
1.640029155E1,-1.391426325E0,9.601799011E0,6.358926296E-1
1.641695821E1,-1.434497118E0,9.591629982E0,5.539384484E-1
1.643362488E1,-1.377069473E0,9.711270332E0,5.497509837E-1
1.645029155E1,-1.362712502E0,9.764511108E0,5.880361795E-1
1.646695821E1,-1.357926846E0,9.735796928E0,6.023930907E-1
1.648362488E1,-1.362712502E0,9.673583984E0,6.406782866E-1
1.650029154E1,-1.357926846E0,9.644869804E0,6.311069727E-1
1.651695821E1,-1.328614831E0,9.616155624E0,5.838487148E-1
1.653362488E1,-1.310070395E0,9.650253296E0,6.364908218E-1
1.655029154E1,-1.353739381E0,9.687940598E0,6.598208547E-1
1.656695821E1,-1.392024517E0,9.735796928E0,6.502495408E-1
1.658362487E1,-1.415952802E0,9.735796928E0,5.922235847E-1
1.660029154E1,-1.406979680E0,9.626325607E0,7.597211599E-1
1.661695821E1,-1.381855130E0,9.577870369E0,5.832505226E-1
1.663362487E1,-1.371685624E0,9.587442398E0,5.353940725E-1
1.665029154E1,-1.367498159E0,9.720842361E0,5.353940725E-1
1.666695820E1,-1.353141189E0,9.735198975E0,5.688936114E-1
1.668362487E1,-1.344766378E0,9.631111145E0,7.459624410E-1
1.670029154E1,-1.356132269E0,9.515059471E0,4.259224236E-1
1.671695820E1,-1.404586911E0,9.567701340E0,4.683950245E-1
1.673362487E1,-1.329213023E0,9.764511108E0,6.071787477E-1
1.675029153E1,-1.223928809E0,9.798010826E0,6.131607890E-1
1.676695820E1,-1.280160069E0,9.721440315E0,4.833501875E-1
1.678362487E1,-1.231107235E0,9.510871887E0,3.888336718E-1
1.680029153E1,-1.328614831E0,9.563513756E0,5.551348329E-1
1.681695820E1,-1.228714466E0,9.745966911E0,6.466603279E-1
1.683362486E1,-1.164706469E0,9.640682220E0,5.324030519E-1
1.685029153E1,-1.250249863E0,9.553942680E0,4.025924206E-1
1.686695820E1,-1.289133191E0,9.658628464E0,3.643072546E-1
1.688362486E1,-1.246062398E0,9.926624298E0,3.595215976E-1
1.690029153E1,-1.173081279E0,1.006480980E1,1.788634956E-1
1.691695819E1,-1.216152072E0,9.964311600E0,1.495514214E-1
1.693362486E1,-1.307677627E0,9.901499748E0,1.728814393E-1
1.695029153E1,-1.336989641E0,9.911669731E0,2.297109663E-1
1.696695819E1,-1.140179992E0,9.917053223E0,2.937189937E-1
1.698362486E1,-7.710871100E-1,1.005703354E1,4.211367965E-1
1.700029152E1,-6.795616150E-1,9.966704369E0,4.313062727E-1
1.701695819E1,-7.238288522E-1,9.890732765E0,5.886343718E-1
1.703362486E1,-7.483552694E-1,9.781260490E0,7.651050687E-1
1.705029152E1,-4.516452849E-1,9.792028427E0,9.445667267E-1
1.706695819E1,-1.698904037E-1,1.011326504E1,1.047458172E0
1.708362485E1,-3.349951655E-2,1.080239773E1,1.234696507E0
1.710029152E1,-6.484549642E-1,1.105543900E1,1.774278045E0
1.711695819E1,-1.403390527E0,1.083350468E1,1.834696770E0
1.713362485E1,-2.925225735E0,9.384052277E0,1.392024517E0
1.715029152E1,-3.070589542E0,7.404589653E0,8.656035662E-1
1.716695818E1,-2.470589399E0,5.934798241E0,9.523434043E-1
1.718362485E1,-1.432702541E0,6.296114445E0,8.656035662E-1
1.720029152E1,-8.602197170E-1,7.679165840E0,1.022931695E0
1.721695818E1,5.503492057E-2,1.266221905E1,1.640878081E0
1.723362485E1,3.631108403E-1,1.526381588E1,1.972882271E0
1.725029151E1,-1.357926875E-1,1.148734283E1,1.902892232E0
1.726695818E1,1.657029688E-1,9.191430092E0,2.307279348E0
1.728362485E1,6.221339107E-1,9.714859962E0,2.827120066E0
1.730029151E1,8.069794178E-1,1.074975586E1,3.540181160E0
1.731695818E1,6.777670383E-1,1.133779144E1,3.844667673E0
1.733362484E1,2.560320199E-1,1.088734341E1,3.812962770E0
1.735029151E1,1.015753269E0,1.015274620E1,3.466003656E0
1.736695818E1,9.367900491E-1,9.470791817E0,4.000799656E0
1.738362484E1,1.216750264E0,8.937192917E0,4.070191383E0
1.740029151E1,9.433703423E-1,8.176873207E0,4.216153622E0
1.741695817E1,1.521835208E0,8.044670105E0,4.072584152E0
1.743362484E1,1.782652855E0,7.992625713E0,3.964907169E0
1.745029151E1,1.213759303E0,8.220541954E0,4.103690624E0
1.746695817E1,1.335793257E0,8.029116631E0,3.884747505E0
1.748362484E1,1.247856975E0,8.115258217E0,4.013361931E0
1.750029150E1,6.185446382E-1,7.993822098E0,4.041477680E0
1.751695817E1,8.428717852E-1,7.449455261E0,3.804588079E0
1.753362484E1,8.338986635E-1,6.971488953E0,3.847658873E0
1.755029150E1,8.392825127E-1,6.795018196E0,3.862015724E0
1.756695817E1,1.058824062E0,6.567101955E0,4.159922123E0
1.758362483E1,1.103689432E0,6.413960934E0,3.964308977E0
1.760029150E1,1.516451359E0,6.281757832E0,4.168895245E0
1.761695817E1,2.094916344E0,6.437889099E0,4.555934429E0
1.763362483E1,2.161915302E0,6.614958286E0,4.585246563E0
1.765029150E1,1.831705689E0,6.870990276E0,4.262215137E0
1.766695816E1,1.683350682E0,6.722036839E0,4.179663181E0
1.768362483E1,1.660020709E0,6.473781586E0,4.222733974E0
1.770029150E1,1.656431437E0,7.042675018E0,4.485345840E0
1.771695816E1,1.728814363E0,7.947162151E0,4.805984497E0
1.773362483E1,1.389631748E0,8.958727837E0,4.811966419E0
1.775029149E1,1.334596872E0,1.119721317E1,5.618347645E0
1.776695816E1,1.506880045E0,1.175833035E1,6.183651924E0
1.778362483E1,2.445464849E0,1.075872898E1,6.454638958E0
1.780029149E1,2.757728100E0,1.089811039E1,6.486343861E0
1.781695816E1,2.428714991E0,1.159980583E1,6.473781586E0
1.783362482E1,1.767697692E0,1.290628719E1,6.305087566E0
1.785029149E1,9.284151793E-1,1.292602825E1,5.915655613E0
1.786695816E1,6.646065116E-1,1.213101292E1,5.469394207E0
1.788362482E1,1.148554921E0,1.142512989E1,5.339583874E0
1.790029149E1,1.860419631E0,1.155135155E1,5.255236626E0
1.791695815E1,2.654836655E0,1.162971592E1,5.089533806E0
1.793362482E1,2.818745136E0,1.238883877E1,4.694717884E0
1.795029149E1,1.052842021E0,1.209691525E1,4.932804108E0
1.796695815E1,3.373879790E-1,1.259581852E1,4.601397991E0
1.798362482E1,-1.058824062E0,1.082692432E1,4.164707661E0
1.800029148E1,-1.486541033E0,9.597013474E0,3.965505362E0
1.801695815E1,-1.450050473E0,8.038089752E0,3.430709362E0
1.803362482E1,-8.512466550E-1,7.750352383E0,2.499303341E0
1.805029148E1,-4.480560422E-1,8.537590981E0,1.609173179E0
1.806695815E1,-7.136593461E-1,9.930213928E0,1.157527924E0
1.808362481E1,-1.089332461E0,1.045962620E1,1.115653515E0
1.810029148E1,-1.927418590E0,1.111107159E1,1.007976532E0
1.811695815E1,-2.278565407E0,1.072881889E1,1.239482164E0
1.813362481E1,-2.525026083E0,9.499505997E0,1.199402332E0
1.815029148E1,-2.634497643E0,8.213363647E0,8.404789567E-1
1.816695814E1,-2.395215511E0,8.448458672E0,9.236295223E-1
1.818362481E1,-1.957328916E0,8.563912392E0,8.273184299E-1
1.820029148E1,-8.021938205E-1,9.370891571E0,1.046859860E0
1.821695814E1,-1.196411327E-1,9.802796364E0,9.092726111E-1
1.823362481E1,2.985046208E-1,1.010488987E1,8.506484628E-1
1.825029147E1,9.092725813E-2,1.023769188E1,8.297112584E-1
1.826695814E1,-2.679961324E-1,9.754341125E0,8.362914920E-1
1.828362481E1,-1.746760458E-1,1.017547798E1,1.028315544E0
1.830029147E1,-8.829515576E-1,9.418149948E0,8.739784956E-1
1.831695814E1,-1.565504193E0,8.995817184E0,1.011565804E0
1.833362480E1,-1.810768485E0,8.675178528E0,1.076770186E0
1.835029147E1,-1.934597135E0,8.583653450E0,9.367900491E-1
1.836695814E1,-1.777867198E0,8.501698494E0,6.041877270E-1
1.838362480E1,-1.594816327E0,8.163114548E0,6.628118753E-1
1.840029147E1,-1.358525038E0,8.096714020E0,6.125625968E-1
1.841695813E1,-9.343972206E-1,7.931010723E0,5.635097623E-1
1.843362480E1,-7.615157962E-1,7.721638680E0,6.747759581E-1
1.845029147E1,-4.468596280E-1,7.205985546E0,5.246263742E-1
1.846695813E1,-8.733802438E-1,7.418946743E0,2.249253243E-1
1.848362480E1,-1.284347534E0,8.153543472E0,2.691925466E-1
1.850029146E1,-1.144367456E0,8.440083504E0,1.316052526E-1
1.851695813E1,-1.149153113E0,8.502297401E0,1.076770201E-1
1.853362480E1,-1.224527001E0,8.341380119E0,6.329016089E-1
1.855029146E1,-9.110672474E-1,7.887939930E0,6.209374666E-1
1.856695813E1,-1.059422255E0,7.343572617E0,7.537391186E-1
1.858362479E1,-8.949156404E-1,7.679165840E0,1.137188911E0
1.860029146E1,-5.485545993E-1,7.986045361E0,1.020538807E0
1.861695813E1,-3.505485058E-1,7.847859859E0,9.792626500E-1
1.863362479E1,-1.161715388E0,7.838288784E0,1.076770201E-1
1.865029146E1,-2.134397745E0,8.940183640E0,5.629115105E-1
1.866695812E1,-2.109273195E0,1.001755238E1,1.350748420E0
1.868362479E1,-1.224527001E0,9.442676544E0,1.564307809E0
1.870029146E1,-1.494317770E0,8.903095245E0,1.858026743E0
1.871695812E1,-2.364108801E0,8.517850876E0,1.869990945E0
1.873362479E1,-3.102294445E0,1.015155029E1,9.505487680E-1
1.875029145E1,-3.270390272E0,1.169910812E1,9.583254457E-1
1.876695812E1,-2.956930637E0,1.225603771E1,-5.204389244E-2
1.878362479E1,-2.831307411E0,1.208435249E1,-4.127619043E-2
1.880029145E1,-2.330011129E0,1.086401272E1,2.117647976E-1
1.881695812E1,-1.695913076E0,9.725627899E0,7.956135273E-1
1.883362478E1,-1.618146300E0,9.875179291E0,1.259821177E0
1.885029145E1,-1.654636860E0,1.003848934E1,1.612762451E0
1.886695812E1,-1.844268084E0,9.745966911E0,1.353141189E0
1.888362478E1,-1.982453585E0,9.363115311E0,1.328614831E0
1.890029145E1,-1.762912035E0,8.546564102E0,1.162911773E0
1.891695811E1,-1.311266780E0,8.018348694E0,1.420140266E0
1.893362478E1,-9.296116233E-1,8.033304214E0,1.165902853E0
1.895029145E1,-5.443671346E-1,8.009973526E0,1.121037364E0
1.896695811E1,-3.954139352E-1,7.920242786E0,1.127019525E0
1.898362478E1,-5.515456200E-1,7.557730198E0,1.646860242E0
1.900029144E1,-4.923232496E-1,7.259823799E0,8.542376757E-1
1.901695811E1,-7.956135273E-1,6.753143787E0,1.119242787E0
1.903362478E1,-1.233500123E0,6.321837425E0,1.297508121E0
1.905029144E1,-1.343569875E0,6.149554253E0,1.258026481E0
1.906695811E1,-1.136590719E0,6.126224041E0,1.269392371E0
1.908362477E1,-1.161715388E0,7.009773731E0,1.063609719E0
1.910029144E1,-1.328614831E0,8.456833839E0,9.900303483E-1
1.911695811E1,-1.469791293E0,9.091529846E0,9.840483069E-1
1.913362477E1,-1.664806366E0,8.625527382E0,2.321037948E-1
1.915029144E1,-2.227119684E0,7.845467091E0,4.091726840E-1
1.916695810E1,-1.915454507E0,7.302894592E0,7.944171429E-1
1.918362477E1,-1.775474429E0,6.997809887E0,8.578268886E-1
1.920029144E1,-1.869990945E0,7.652246952E0,9.906286001E-1
1.921695810E1,-2.651845694E0,8.636295319E0,1.762313843E0
1.923362477E1,-2.705684185E0,9.084949493E0,1.704287887E0
1.925029143E1,-5.134997368E0,9.108877182E0,1.105484009E0
1.926695810E1,-4.615755081E0,9.495318413E0,3.116651475E-1
1.928362477E1,-4.157529354E0,9.093324661E0,-4.295116663E-1
1.930029143E1,-3.457628727E0,8.366504669E0,2.075773627E-1
1.931695810E1,-3.187838078E0,8.109275818E0,2.338984162E-1
1.933362476E1,-2.973082066E0,8.440083504E0,3.451646566E-1
1.935029143E1,-3.307479143E0,8.599205971E0,1.302891970E0
1.936695810E1,-2.772084951E0,7.420143127E0,-5.605186820E-1
1.938362476E1,-2.368296146E0,6.001199245E0,6.999006271E-1
1.940029143E1,-2.322234392E0,5.381458282E0,1.192822099E0
1.941695809E1,-1.549950838E0,5.096712112E0,9.032905698E-1
1.943362476E1,-1.286142230E0,5.623133183E0,8.237292171E-1
1.945029143E1,-1.424925923E0,6.435496330E0,1.089930773E0
1.946695809E1,-1.957927108E0,6.512664795E0,3.164508045E-1
1.948362476E1,-1.244866014E0,5.219344616E0,-9.272187948E-2
1.950029142E1,-1.071386337E0,5.773283005E0,-3.403790295E-1
1.951695809E1,1.477568030E0,9.588040352E0,9.038887620E-1
1.953362476E1,2.313859463E0,1.666840172E1,1.645065546E0
1.955029142E1,-7.016952634E-1,2.233759689E1,9.343972206E-1
1.956695809E1,-3.166302681E0,1.867358780E1,-2.846262455E0
1.958362475E1,-4.462016106E0,1.779302979E1,-3.564109325E0
1.960029142E1,-6.289534092E0,1.418345642E1,-6.975077987E-1
1.961695809E1,-1.453639716E-1,1.170209885E1,1.773679733E0
1.963362475E1,3.297309637E0,1.073001480E1,2.252244234E0
1.965029142E1,2.109871387E0,1.517587948E1,1.127617717E0
1.966695808E1,1.817947030E0,1.836431503E1,4.408775866E-1
1.968362475E1,2.248655081E0,2.128714752E1,-4.546363056E-1
1.970029142E1,7.776673436E-1,1.409193039E1,-5.078766346E-1
1.971695808E1,1.908276081E0,1.001934624E1,9.696913958E-1
1.973362475E1,2.779861689E0,9.279366493E0,1.842473388E0
1.975029141E1,2.788236618E0,1.071625614E1,1.392622828E0
1.976695808E1,2.466402054E0,1.163629627E1,9.882357717E-1
1.978362475E1,1.352542996E0,1.231226921E1,-1.680957973E-1
1.980029141E1,7.058826685E-1,1.152682495E1,-2.404786795E-1
1.981695808E1,6.526423693E-1,1.038903809E1,-4.558327198E-1
1.983362474E1,1.138385415E0,9.416953087E0,-5.922235921E-2
1.985029141E1,1.488933921E0,9.131608963E0,1.016949639E-1
1.986695808E1,2.060220242E0,8.928817749E0,3.260220885E-1
1.988362474E1,2.147558212E0,9.004789352E0,1.740778536E-1
1.990029141E1,2.338385820E0,9.053842545E0,3.954139352E-1
1.991695807E1,2.262413740E0,9.172885895E0,2.129612118E-1
1.993362474E1,1.969891191E0,9.075976372E0,7.657032460E-2
1.995029141E1,1.010369420E0,8.871390343E0,-1.417747438E-1
1.996695807E1,3.469592929E-1,9.017352104E0,-1.998006850E-1
1.998362474E1,9.571290575E-3,9.398408890E0,-2.410768867E-1
2.000029140E1,5.264209956E-2,9.613164902E0,-2.644068897E-1
2.001695807E1,1.058823988E-1,9.728020668E0,-3.930211067E-1
2.003362474E1,1.573280841E-1,9.824331284E0,-2.255235314E-1
2.005029140E1,4.199403822E-1,9.873384476E0,4.905286431E-2
2.006695807E1,6.442674994E-1,9.712467194E0,3.708875179E-1
2.008362473E1,6.017948985E-1,9.354142189E0,3.708875179E-1
2.010029140E1,4.875376225E-1,8.947959900E0,3.888336718E-1
2.011695807E1,5.665007830E-1,8.746963501E0,1.603191197E-1
2.013362473E1,6.041877270E-1,9.157332420E0,7.477571070E-2
2.015029140E1,1.746760458E-1,9.509675026E0,1.519442350E-1
2.016695806E1,-4.247260094E-2,9.581459999E0,2.554338276E-1
2.018362473E1,-3.589234129E-2,9.570692062E0,1.674975827E-2
2.020029140E1,5.982056633E-2,9.662218094E0,7.776673418E-3
2.021695806E1,3.571287692E-1,9.744172096E0,9.631111473E-2
2.023362473E1,1.501496136E-1,9.720243454E0,1.663011760E-1
2.025029139E1,8.733802289E-2,9.653244972E0,2.470589429E-1
2.026695806E1,-8.733802289E-2,9.534201622E0,5.419743061E-1
2.028362473E1,-8.973085321E-3,9.528818130E0,2.889333367E-1
2.030029139E1,2.416750938E-1,9.649057388E0,1.956132501E-1
2.031695806E1,2.333002165E-2,9.715457916E0,4.468596280E-1
2.033362472E1,-1.010967568E-1,9.786046028E0,2.596212626E-1
2.035029139E1,-4.444667995E-1,9.857831001E0,5.527420044E-1
2.036695806E1,-4.642075896E-1,1.001037312E1,5.670989752E-1
2.038362472E1,-4.151547253E-1,9.981659889E0,4.528416991E-1
2.040029139E1,-3.589234054E-1,9.958928108E0,7.016952634E-1
2.041695805E1,-1.680957973E-1,9.872187614E0,2.207378894E-1
2.043362472E1,-8.614161611E-2,9.824331284E0,1.926222295E-1
2.045029139E1,-6.382854581E-1,1.010130119E1,7.088736892E-1
2.046695805E1,-6.155536175E-1,1.030708313E1,7.902296782E-1
2.048362472E1,-7.567301393E-1,1.006899738E1,1.094716311E0
2.050029138E1,-1.362712502E0,9.248857498E0,7.268198729E-1
2.051695805E1,-1.266999602E0,9.129815102E0,8.949156404E-1
2.053362472E1,-1.200000525E0,9.378668785E0,8.715856671E-1
2.055029138E1,-1.293320656E0,9.787242889E0,2.398804724E-1
2.056695805E1,-1.573280931E0,1.019761181E1,2.422732860E-1
2.058362471E1,-1.660020709E0,1.017368412E1,3.128615618E-1
2.060029138E1,-1.442872047E0,9.439086914E0,4.869394004E-1
2.061695805E1,-9.613165259E-1,9.101100922E0,5.054838061E-1
2.063362471E1,-1.192822099E0,9.401400566E0,4.414757788E-1
2.065029138E1,-1.355534077E0,9.698708534E0,9.511470199E-1
2.066695804E1,-1.621735573E0,9.865608215E0,1.106680512E0
2.068362471E1,-1.719243050E0,9.870393753E0,1.306481123E0
2.070029138E1,-1.785045743E0,9.583254814E0,1.215553880E0
2.071695804E1,-1.429113269E0,8.708678246E0,8.315058947E-1
2.073362471E1,-1.250249863E0,8.575876236E0,7.902296782E-1
2.075029137E1,-7.238288522E-1,8.697312355E0,1.033699393E0
2.076695804E1,-7.884350419E-1,9.347561836E0,1.161715388E0
2.078362471E1,-1.151545882E0,9.719645500E0,1.373480201E0
2.080029137E1,-1.459023595E0,9.699306488E0,1.284945726E0
2.081695804E1,-1.630110383E0,9.525827408E0,1.092323542E0
2.083362470E1,-1.423131227E0,9.206983566E0,1.194616675E0
2.085029137E1,-9.804590940E-1,8.826524734E0,1.269990563E0
2.086695804E1,-7.800601721E-1,9.443274498E0,1.243071318E0
2.088362470E1,-8.805587292E-1,1.008873844E1,1.600200176E0
2.090029137E1,-3.900300860E-1,1.083709335E1,2.063211441E0
2.091695803E1,6.753742099E-1,1.216092300E1,2.520838737E0
2.093362470E1,8.009973764E-1,1.269751358E1,2.976073265E0
2.095029137E1,6.777670383E-1,1.197069359E1,2.932404041E0
2.096695803E1,4.833501875E-1,1.089990520E1,2.973680258E0
2.098362470E1,8.638089895E-1,1.043809032E1,3.049054146E0
2.100029136E1,4.815555513E-1,1.003011417E1,2.888136864E0
2.101695803E1,2.889333367E-1,9.571290970E0,3.063411236E0
2.103362470E1,9.152546525E-2,9.155537605E0,3.281157970E0
2.105029136E1,-4.474578202E-1,9.101698875E0,3.348755360E0
2.106695803E1,-4.235295951E-1,9.092127800E0,3.339184046E0
2.108362469E1,-6.544370055E-1,9.172885895E0,3.375076294E0
2.110029136E1,-6.017948985E-1,9.029914856E0,3.433102369E0
2.111695803E1,3.361915946E-1,8.874979019E0,3.507878065E0
2.113362469E1,6.442674994E-1,8.718249321E0,3.486940861E0
2.115029136E1,7.920243144E-1,8.824729919E0,3.641277790E0
2.116695802E1,1.028913736E0,8.715258598E0,3.523431301E0
2.118362469E1,9.613165259E-1,8.542975426E0,3.570689678E0
2.120029136E1,8.386843204E-1,8.681758881E0,3.866203070E0
2.121695802E1,9.601200819E-1,8.452646255E0,3.805186272E0
2.123362469E1,9.206385016E-1,8.300103188E0,3.972085476E0
2.125029135E1,1.055832982E0,8.009375572E0,4.054637909E0
2.126695802E1,1.104885817E0,7.780262947E0,4.002593994E0
2.128362469E1,1.293918848E0,7.302894592E0,4.004388809E0
2.130029135E1,1.356730461E0,6.821339130E0,4.138386726E0
2.131695802E1,1.573280931E0,6.382854462E0,4.241278172E0
2.133362468E1,1.472782373E0,6.391827583E0,4.163511276E0
2.135029135E1,1.444666624E0,6.362515450E0,4.115654945E0
2.136695802E1,1.417149186E0,6.562315941E0,3.809373617E0
2.138362468E1,1.379462242E0,6.667002201E0,3.665804386E0
2.140029135E1,1.241874933E0,6.699305058E0,3.363710403E0
2.141695801E1,1.144367456E0,6.894918442E0,3.530011654E0
2.143362468E1,1.094716311E0,7.062416077E0,3.672982693E0
2.145029135E1,1.121037364E0,7.311867714E0,3.902095556E0
2.146695801E1,8.925228715E-1,7.238886833E0,3.661616802E0
2.148362468E1,6.311069727E-1,7.858627796E0,3.601796389E0
2.150029134E1,8.685946465E-1,9.127422333E0,4.262813568E0
2.151695801E1,1.722832322E0,9.137591362E0,5.178068161E0
2.153362468E1,2.167897224E0,9.030512810E0,5.559723377E0
2.155029134E1,2.877369165E0,9.579665184E0,6.311069489E0
2.156695801E1,3.223132133E0,1.120558834E1,6.489933014E0
2.158362467E1,3.099901676E0,1.360439301E1,6.669992924E0
2.160029134E1,3.038884640E0,1.604148293E1,6.936194420E0
2.161695801E1,2.914458036E0,1.709731674E1,7.092924595E0
2.163362467E1,2.821736097E0,1.749093437E1,7.832306862E0
2.165029134E1,2.780459881E0,1.665464401E1,7.856235027E0
2.166695800E1,2.480758905E0,1.498684597E1,8.045268059E0
2.168362467E1,9.684949517E-1,1.224467182E1,8.052446365E0
2.170029134E1,1.594218135E0,1.274297714E1,7.808976650E0
2.171695800E1,6.987041831E-1,1.146939754E1,6.377470493E0
2.173362467E1,-1.932204217E-1,1.050269699E1,5.017749310E0
2.175029133E1,-8.333004713E-1,1.015753174E1,3.793820381E0
2.176695800E1,-8.703892231E-1,8.611170769E0,2.785843849E0
2.178362467E1,-1.119242787E0,6.485147476E0,1.412961721E0
2.180029133E1,-1.544566989E0,5.869594097E0,5.682953596E-1
2.181695800E1,-2.627917528E0,6.213562012E0,-7.657032460E-2
2.183362466E1,-2.868396044E0,8.559724808E0,4.462614357E-1
2.185029133E1,-2.189432621E0,1.067019463E1,8.817551732E-1
2.186695800E1,-1.813161373E0,1.103390312E1,5.359922647E-1
2.188362466E1,-1.961516380E0,1.061755180E1,6.257231236E-1
2.190029133E1,-2.022533417E0,1.000618649E1,6.634100676E-1
2.191695799E1,-1.924427629E0,8.888737679E0,8.177471161E-1
2.193362466E1,-1.217348576E0,8.075178146E0,1.091725349E0
2.195029133E1,-3.726821244E-1,7.527221680E0,8.362914920E-1
2.196695799E1,-1.591227055E-1,7.548159122E0,1.210768223E0
2.198362466E1,1.100698411E-1,7.372884750E0,1.304088354E0
2.200029132E1,2.626122832E-1,7.648657799E0,6.885347366E-1
2.201695799E1,6.879365444E-2,8.125427246E0,7.345965505E-1
2.203362466E1,-6.640082598E-2,8.660223007E0,6.089733839E-1
2.205029132E1,-9.631111473E-2,8.626724243E0,7.854440212E-1
2.206695799E1,-2.757728100E-1,8.321639061E0,1.109073281E0
2.208362465E1,-1.668993831E-1,7.600203037E0,9.284151793E-1
2.210029132E1,-5.688936114E-1,7.034898758E0,9.110672474E-1
2.211695799E1,-9.936196208E-1,6.817151546E0,4.821537733E-1
2.213362465E1,-9.655039310E-1,7.538587570E0,3.290131092E-1
2.215029132E1,-1.004985452E0,8.340183258E0,1.471585929E-1
2.216695798E1,-1.074975610E0,9.644271851E0,6.999006122E-2
2.218362465E1,-1.158126116E0,1.041775131E1,-8.853443712E-2
2.220029132E1,-1.602592945E0,1.035494041E1,2.847459018E-1
2.221695798E1,-1.815554142E0,9.870991707E0,-3.589233849E-3
2.223362465E1,-1.999203324E0,9.669994354E0,1.764706671E-1
2.225029131E1,-1.908874273E0,9.442078590E0,4.259224236E-1
2.226695798E1,-1.256830096E0,9.230313301E0,7.657032609E-1
2.228362465E1,-1.332203984E0,8.508278847E0,7.657032609E-1
2.230029131E1,-1.310668588E0,8.340781212E0,5.742774606E-1
2.231695798E1,-1.141376376E0,8.421539307E0,3.463610709E-1
2.233362464E1,-1.158724308E0,8.420941353E0,1.124626622E-1
2.235029131E1,-1.125224829E0,8.750552177E0,1.196411345E-2
2.236695798E1,-1.204187989E0,9.218947411E0,1.070788130E-1
2.238362464E1,-1.179063320E0,9.528818130E0,-1.507478207E-1
2.240029131E1,-1.390828133E0,9.289535522E0,-6.640082598E-2
2.241695797E1,-1.391426325E0,9.093922615E0,1.052841991E-1
2.243362464E1,-1.180259824E0,8.612964630E0,3.463610709E-1
2.245029131E1,-8.249256015E-1,8.108079910E0,6.119644046E-1
2.246695797E1,-4.420739710E-1,7.995616913E0,9.020941257E-1
2.248362464E1,-6.394818425E-1,8.076375008E0,9.672985673E-1
2.250029130E1,-6.939185858E-1,8.148757935E0,1.172483087E0
2.251695797E1,-8.991031051E-1,8.257032394E0,8.889335990E-1
2.253362464E1,-1.111466169E0,8.705088615E0,8.009973764E-1
2.255029130E1,-7.806583643E-1,1.003310490E1,4.067798555E-1
2.256695797E1,-1.065404296E0,1.048116112E1,3.852444589E-1
2.258362463E1,-1.445264935E0,1.035613632E1,4.677968323E-1
2.260029130E1,-1.426720500E0,9.645467758E0,8.075776696E-1
2.261695797E1,-1.415952802E0,9.035896301E0,1.557727575E0
2.263362463E1,-1.593021631E0,9.423533440E0,1.986042738E0
2.265029130E1,-1.876571178E0,1.130788136E1,1.299900889E0
2.266695796E1,-1.936391711E0,1.211007500E1,1.213161111E0
2.268362463E1,-2.447857618E0,1.180678558E1,8.985049129E-1
2.270029130E1,-3.401397467E0,1.182174015E1,4.313062727E-1
2.271695796E1,-3.917648792E0,1.145563793E1,9.750752151E-2
2.273362463E1,-4.485345840E0,1.035434151E1,-1.076770201E-1
2.275029129E1,-4.452444553E0,9.610174179E0,3.086741269E-1
2.276695796E1,-4.232305050E0,9.296713829E0,5.539384484E-1
2.278362463E1,-3.406781197E0,8.985049248E0,8.859425783E-1
2.280029129E1,-2.496312141E0,9.113064766E0,1.309472203E0
2.281695796E1,-1.563709617E0,9.030512810E0,1.446461320E0
2.283362462E1,-6.514459848E-1,9.177073479E0,1.564307809E0
2.285029129E1,-4.354937077E-1,9.220742226E0,1.561316729E0
2.286695796E1,-1.537388563E-1,9.034101486E0,1.238883972E0
2.288362462E1,-3.972085714E-1,8.632107735E0,1.141376376E0
2.290029129E1,-7.776673436E-1,8.353941917E0,1.319641709E0
2.291695795E1,-8.691928387E-1,7.661818027E0,1.630110383E0
2.293362462E1,-8.644071817E-1,7.161119938E0,1.844866276E0
2.295029129E1,-4.995017350E-1,7.000202656E0,1.977069736E0
2.296695795E1,1.369891018E-1,6.900900364E0,1.772483349E0
2.298362462E1,2.297109663E-1,6.902695179E0,2.236690998E0
2.300029128E1,1.016949639E-1,7.159325123E0,1.891526341E0
2.301695795E1,-2.051845491E-1,7.372884750E0,1.659422517E0
2.303362462E1,-3.978067636E-1,7.496713161E0,1.705484390E0
2.305029128E1,-1.107876897E0,7.441080093E0,1.441675663E0
2.306695795E1,-2.268994093E0,7.130611420E0,1.183250785E0
2.308362461E1,-2.946162939E0,7.204789162E0,1.038485050E0
2.310029128E1,-2.930011272E0,7.630711555E0,1.378265858E0
2.311695795E1,-2.714657307E0,7.536194801E0,1.556531072E0
2.313362461E1,-2.533401012E0,7.192226887E0,1.195214868E0
2.315029128E1,-2.766103029E0,6.806384087E0,2.470589429E-1
2.316695794E1,-3.691527128E0,6.634100914E0,1.261615753E0
2.318362461E1,-3.993022680E0,6.635297298E0,3.750749528E-1
2.320029128E1,-4.939383984E0,6.595815659E0,9.260223508E-1
2.321695794E1,-5.018347263E0,7.262216568E0,1.675574064E0
2.323362461E1,-4.527818680E0,7.316653252E0,3.032902777E-1
2.325029127E1,-4.834099770E0,7.429714203E0,1.435693540E-2
2.326695794E1,-4.472783566E0,8.563912392E0,1.555334777E-1
2.328362461E1,-3.635295868E0,9.803992271E0,2.578266263E-1
2.330029127E1,-3.553939819E0,9.405587196E0,1.156929731E0
2.331695794E1,-2.515454769E0,8.605188370E0,7.986045480E-1
2.333362460E1,-1.485344648E0,7.119245529E0,1.228116274E0
2.335029127E1,-7.674978375E-1,6.452844620E0,1.339382529E0
2.336695794E1,-4.833501875E-1,6.586842537E0,1.213161111E0
2.338362460E1,-1.180259824E0,6.933203697E0,1.020538807E0
2.340029127E1,-2.268395901E0,7.798807144E0,9.104689956E-1
2.341695793E1,-2.450848579E0,7.630711555E0,8.901300430E-1
2.343362460E1,-3.102892876E0,8.486743927E0,2.578266263E-1
2.345029127E1,-1.022931695E0,1.074556828E1,2.511865616E0
2.346695793E1,-5.814558864E-1,1.102433205E1,2.501097918E0
2.348362460E1,-7.980063558E-1,1.477627850E1,3.148356438E0
2.350029126E1,-2.170290232E0,1.623171234E1,8.039883971E-1
2.351695793E1,-4.083950043E0,1.595414543E1,-5.168496966E-1
2.353362460E1,-6.939185619E0,1.285304642E1,-8.512466550E-1
2.355029126E1,-3.096312523E0,9.793225288E0,8.739784956E-1
2.356695793E1,-1.463211060E0,9.601799011E0,5.778666735E-1
2.358362459E1,-4.857429862E-1,1.537747478E1,9.427721500E-1
2.360029126E1,3.744767308E-1,2.417887497E1,3.409772217E-1
2.361695793E1,2.015953064E0,2.400479698E1,-4.666004181E-1
2.363362459E1,1.926820397E0,1.515853119E1,1.857428551E0
2.365029126E1,2.470589399E0,1.246660614E1,2.211566210E0
2.366695792E1,3.277568817E0,1.001635551E1,3.227319479E0
2.368362459E1,2.357528448E0,9.775876999E0,2.167897224E0
2.370029126E1,1.213161111E0,9.684949875E0,1.704886109E-1
2.371695792E1,7.022934556E-1,9.765707016E0,-1.124028444E0
2.373362459E1,1.201795220E0,1.006361389E1,-1.119840980E0
2.375029125E1,1.877767563E0,9.746564865E0,-6.981059909E-1
2.376695792E1,1.880758643E0,8.568697929E0,4.785645287E-3
2.378362459E1,1.432104349E0,7.981259823E0,4.402793646E-1
2.380029125E1,1.409970760E0,8.115856171E0,7.651050687E-1
2.381695792E1,1.583450437E0,8.173283577E0,6.903293133E-1
2.383362458E1,1.885544300E0,8.231907845E0,7.788637877E-1
2.385029125E1,2.047657967E0,8.676973343E0,8.374879360E-1
2.386695792E1,1.811964989E0,9.570692062E0,1.212562919E0
2.388362458E1,2.050050735E0,9.825528145E0,1.477568030E0
2.390029125E1,1.948355794E0,9.538987160E0,1.648654819E0
2.391695791E1,1.709073544E0,9.356534958E0,1.570289850E0
2.393362458E1,1.259222865E0,9.230313301E0,1.289133191E0
2.395029125E1,1.453041553E0,9.836296082E0,8.608179688E-1
2.396695791E1,1.543968797E0,1.051406288E1,6.317051649E-1
2.398362458E1,1.679163337E0,1.032383347E1,6.281159520E-1
2.400029124E1,1.430309772E0,1.005523872E1,5.497509837E-1
2.401695791E1,1.007976532E0,9.518648148E0,6.562315822E-1
2.403362458E1,7.674978375E-1,8.902496338E0,8.739784956E-1
2.405029124E1,9.224331379E-1,8.916853905E0,7.752745152E-1
2.406695791E1,9.164510965E-1,9.380462646E0,7.657032609E-1
2.408362457E1,8.051848412E-1,9.475577354E0,7.884350419E-1
2.410029124E1,4.271188378E-1,9.698110580E0,4.552344978E-1
2.411695791E1,2.464607358E-1,9.732208252E0,8.219345808E-1
2.413362457E1,2.003988922E-1,9.900303841E0,1.203589797E0
2.415029124E1,2.195414752E-1,1.002891827E1,1.160519004E0
2.416695790E1,2.255235314E-1,9.503693581E0,1.208375454E0
2.418362457E1,2.638086975E-1,9.346364975E0,1.280758262E0
2.420029124E1,5.288137794E-1,9.523433685E0,1.077368379E0
2.421695790E1,4.396811724E-1,9.727422714E0,6.801598072E-1
2.423362457E1,4.313062727E-1,9.894321442E0,4.983053207E-1
2.425029123E1,4.743770957E-1,1.013779163E1,3.936193287E-1
2.426695790E1,5.054838061E-1,1.001276588E1,1.645065546E-1
2.428362457E1,-5.443671346E-2,9.806385040E0,5.180460811E-1
2.430029123E1,-1.896311939E-1,9.519845009E0,7.178468108E-1
2.431695790E1,-5.904290080E-1,9.731609344E0,1.545763373E0
2.433362456E1,-8.464609981E-1,9.753145218E0,1.012762189E0
2.435029123E1,-5.964110494E-1,9.872786522E0,9.625129104E-1
2.436695790E1,-3.738785386E-1,9.989436150E0,1.413560033E0
2.438362456E1,1.531406492E-1,1.030050373E1,9.260223508E-1
2.440029123E1,1.549352705E-1,9.922437668E0,7.585247755E-1
2.441695789E1,-9.272187948E-2,9.937392235E0,1.129412293E0
2.443362456E1,1.310070455E-1,1.035852909E1,1.274178028E0
2.445029123E1,1.824527234E-1,1.045962620E1,1.456630826E0
2.446695789E1,-7.238288224E-2,1.031127071E1,1.540379524E0
2.448362456E1,-4.438686073E-1,9.759127617E0,1.202991605E0
2.450029122E1,-6.251249313E-1,9.156734467E0,1.225125194E0
2.451695789E1,-5.234299302E-1,8.818149567E0,1.278963685E0
2.453362456E1,-4.432703853E-1,8.790632248E0,1.537388563E0
2.455029122E1,-1.597209126E-1,8.968298912E0,1.463211060E0
2.456695789E1,-1.088734269E-1,9.541978836E0,1.511665702E0
2.458362455E1,-9.571290575E-3,9.707681656E0,1.020538807E0
2.460029122E1,-4.785645381E-2,9.602396965E0,1.034297585E0
2.461695789E1,-1.064806059E-1,9.879964828E0,1.071984529E0
2.463362455E1,-2.344966233E-1,1.028913784E1,6.406782866E-1
2.465029122E1,-5.682953596E-1,1.031246758E1,9.577272534E-1
2.466695788E1,-9.212366939E-1,1.004267693E1,5.964110494E-1
2.468362455E1,-9.397810698E-1,9.584450722E0,6.346961856E-1
2.470029122E1,-1.115055323E0,9.818947792E0,9.152546525E-1
2.471695788E1,-1.365703583E0,9.832706451E0,1.003789067E0
2.473362455E1,-1.759322882E0,9.215357780E0,1.138983607E0
2.475029121E1,-1.815554142E0,8.870791435E0,9.906286001E-1
2.476695788E1,-1.980060697E0,9.075976372E0,1.137188911E0
2.478362455E1,-1.820937991E0,9.338588715E0,9.284151793E-1
2.480029121E1,-1.821536183E0,9.558130264E0,9.140582681E-1
2.481695788E1,-1.603191137E0,1.025264645E1,1.087537885E0
2.483362454E1,-1.217348576E0,1.048415279E1,1.516451359E0
2.485029121E1,-7.178468108E-1,9.970891953E0,1.840678811E0
2.486695788E1,-1.010967568E-1,9.332606316E0,1.879562140E0
2.488362454E1,1.106680483E-1,9.161520004E0,1.933998942E0
2.490029121E1,7.645068169E-1,1.016770172E1,2.259422779E0
2.491695787E1,1.222134113E0,1.106321526E1,2.483151674E0
2.493362454E1,1.230509043E0,1.092562866E1,2.745764017E0
2.495029121E1,1.191027522E0,1.065822983E1,2.898306370E0
2.496695787E1,1.165304661E0,1.077368355E1,3.099303484E0
2.498362454E1,1.066002488E0,1.033340454E1,3.074178934E0
2.500029120E1,1.448255897E0,1.026879883E1,3.445664644E0
2.501695787E1,9.332008362E-1,9.487542152E0,3.154936552E0
2.503362454E1,1.528415442E0,9.695118904E0,3.221935749E0
2.505029120E1,9.397810698E-1,9.818349838E0,3.441477060E0
2.506695787E1,9.936196208E-1,9.498309135E0,3.403790236E0
2.508362453E1,-1.040877849E-1,8.662615776E0,3.208176851E0
2.510029120E1,7.411768436E-1,8.599205971E0,3.392424345E0
2.511695787E1,8.757730722E-1,8.537590981E0,3.422334671E0
2.513362453E1,4.091726840E-1,8.397610664E0,3.518645763E0
2.515029120E1,1.046261668E0,8.768498421E0,3.729214191E0
2.516695786E1,1.463809252E0,8.540582657E0,3.924229145E0
2.518362453E1,1.605584025E0,8.144570351E0,3.805784464E0
2.520029120E1,1.445863128E0,8.082356453E0,3.981656790E0
2.521695786E1,1.604985833E0,7.843672752E0,3.978067636E0
2.523362453E1,1.599003673E0,7.935198307E0,4.144967079E0
2.525029119E1,1.756331801E0,8.026723862E0,4.246662140E0
2.526695786E1,2.005185366E0,7.908876896E0,4.482953072E0
2.528362453E1,2.231307030E0,7.747361660E0,4.547559261E0
2.530029119E1,2.240280151E0,7.499105930E0,4.680959225E0
2.531695786E1,2.115853310E0,7.360322475E0,4.646861553E0
2.533362452E1,2.130210400E0,7.298109055E0,4.723432064E0
2.535029119E1,1.989632010E0,7.191030025E0,4.234697819E0
2.536695786E1,1.629512191E0,7.409375191E0,4.102494240E0
2.538362452E1,1.179063320E0,7.321439266E0,3.878765583E0
2.540029119E1,1.006181955E0,7.268198967E0,3.844069481E0
2.541695785E1,8.141579032E-1,7.305885792E0,3.799204111E0
2.543362452E1,2.237289101E-1,8.152944565E0,3.369094372E0
2.545029119E1,4.181457460E-1,8.904291153E0,3.475574970E0
2.546695785E1,9.260223508E-1,8.624929428E0,3.780659676E0
2.548362452E1,1.042672515E0,7.913662910E0,3.901497364E0
2.550029118E1,1.171884894E0,7.613363266E0,4.098905087E0
2.551695785E1,1.243669510E0,7.237092018E0,4.342973232E0
2.553362452E1,1.231107235E0,7.255636692E0,4.061218262E0
2.555029118E1,8.668000102E-1,8.396414757E0,4.110270977E0
2.556695785E1,8.338986635E-1,9.301499367E0,5.012963295E0
2.558362451E1,1.166501045E0,9.772287369E0,5.445466042E0
2.560029118E1,1.376471281E0,9.869196892E0,5.653043270E0
2.561695785E1,1.721037745E0,1.010967541E1,5.784648895E0
2.563362451E1,2.433500528E0,1.072463131E1,6.148955822E0
2.565029118E1,3.033500910E0,1.211725426E1,6.430710793E0
2.566695784E1,3.735794306E0,1.399920845E1,7.033702374E0
2.568362451E1,3.911666870E0,1.471645737E1,7.097112179E0
2.570029118E1,3.851846218E0,1.482473278E1,6.613761902E0
2.571695784E1,2.812762976E0,1.406560993E1,6.294918060E0
2.573362451E1,2.081157446E0,1.352243900E1,5.953940868E0
2.575029117E1,1.843669891E0,1.358225918E1,5.464608669E0
2.576695784E1,1.760519266E0,1.353021526E1,5.669195175E0
2.578362451E1,1.182054400E0,1.269452190E1,4.862215519E0
2.580029117E1,9.846464992E-1,1.202094269E1,5.103890896E0
2.581695784E1,7.651050687E-1,9.801001549E0,4.357329845E0
2.583362450E1,-3.002992272E-1,7.383054256E0,3.613162279E0
2.585029117E1,-8.392825127E-1,6.525227547E0,3.331407309E0
2.586695784E1,-1.835893154E0,5.772086620E0,1.703091502E0
2.588362450E1,-2.057229280E0,7.159923553E0,1.146760225E0
2.590029117E1,-1.566102386E0,9.058030128E0,1.068993568E0
2.591695783E1,-1.497906923E0,9.942776680E0,1.241276741E0
2.593362450E1,-1.362712502E0,1.072283649E1,1.552941918E0
2.595029117E1,-1.037288666E0,1.113021469E1,1.674975872E0
2.596695783E1,-2.007578135E0,9.401998520E0,1.442872047E0
2.598362450E1,-2.384447813E0,8.067999840E0,1.564307809E0
2.600029116E1,-2.341975212E0,7.259823799E0,1.272981644E0
2.601695783E1,-1.863410592E0,7.400402069E0,1.545165181E0
2.603362450E1,-1.586441398E0,7.698308468E0,1.704886079E0
2.605029116E1,-2.572284341E-1,8.732605934E0,1.080359459E0
2.606695783E1,-7.357929647E-2,9.130413055E0,1.435693622E0
2.608362449E1,-5.443671346E-1,8.699705124E0,1.565504193E0
2.610029116E1,6.945167780E-1,9.923633575E0,6.011967063E-1
2.611695783E1,-3.230310604E-2,9.807581902E0,8.195417523E-1
2.613362449E1,-5.509474277E-1,9.480961800E0,8.147560954E-1
2.615029116E1,-1.127617717E0,9.254839897E0,8.530412912E-1
2.616695782E1,-1.378265858E0,9.306285858E0,8.793623447E-1
2.618362449E1,-1.176072359E0,9.216554642E0,8.763712645E-1
2.620029116E1,-1.247258782E0,9.382855415E0,7.375875711E-1
2.621695782E1,-1.237687469E0,9.478569031E0,6.658028960E-1
2.623362449E1,-1.545165181E0,9.429515839E0,6.203392744E-1
2.625029115E1,-1.563709617E0,9.035896301E0,8.374879137E-3
2.626695782E1,-1.856232166E0,8.769695282E0,7.082754970E-1
2.628362449E1,-1.478764415E0,8.478368759E0,4.821537733E-1
2.630029115E1,-1.279561877E0,8.230113029E0,2.931207716E-1
2.631695782E1,-9.391828775E-1,7.940581799E0,5.156532526E-1
2.633362448E1,-4.342973232E-1,8.027919769E0,4.863412082E-1
2.635029115E1,-2.979064286E-1,7.822735310E0,3.684946895E-1
2.636695782E1,-3.020938635E-1,7.421339512E0,3.732803464E-1
2.638362448E1,-1.914258152E-1,7.335795879E0,3.978067636E-1
2.640029115E1,-2.494517565E-1,7.426125050E0,4.217349887E-1
2.641695781E1,-2.973082066E-1,7.530810833E0,3.684946895E-1
2.643362448E1,-2.781656384E-1,7.703094482E0,3.302095234E-1
2.645029115E1,-6.598208547E-1,7.936394691E0,4.941178858E-1
2.646695781E1,-8.398807645E-1,8.509475708E0,5.210371017E-1
2.648362448E1,-1.057029366E0,8.771489143E0,5.670989752E-1
2.650029114E1,-1.276570916E0,9.387641907E0,7.609176040E-1
2.651695781E1,-1.009771109E0,9.795618057E0,1.016351461E0
2.653362448E1,-1.226321578E0,9.574879646E0,1.062413216E0
2.655029114E1,-1.397408366E0,8.924630165E0,1.037288666E0
2.656695781E1,-1.487737536E0,8.532805443E0,1.041476011E0
2.658362447E1,-1.091127157E0,7.936394691E0,9.110672474E-1
2.660029114E1,-8.572286963E-1,8.219346046E0,1.128215909E0
2.661695781E1,-1.067198873E0,8.912068367E0,1.312463164E0
2.663362447E1,-1.521835208E0,9.885348320E0,1.250848055E0
2.665029114E1,-1.612762451E0,1.032861900E1,1.054038405E0
2.666695780E1,-1.995614052E0,1.082333469E1,6.352944374E-1
2.668362447E1,-1.746162295E0,1.174038410E1,3.260220885E-1
2.670029114E1,-1.763510346E0,1.137906837E1,8.470591903E-1
2.671695780E1,-1.345364571E0,1.101954651E1,1.753939033E0
2.673362447E1,-1.363908887E0,1.131745243E1,2.216950178E0
2.675029113E1,-2.120639086E0,1.121336555E1,1.856830359E0
2.676695780E1,-3.778266907E0,1.161296654E1,1.436890006E0
2.678362447E1,-4.527818680E0,1.197607708E1,5.270192027E-1
2.680029113E1,-3.558725595E0,1.250967693E1,6.496513486E-1
2.681695780E1,-2.325823545E0,1.284407330E1,9.565308690E-1
2.683362446E1,-1.658226132E0,1.244566917E1,1.210768223E0
2.685029113E1,-9.236295223E-1,1.121216869E1,1.853241086E0
2.686695780E1,-1.663011789E0,1.005464077E1,2.152942181E0
2.688362446E1,-1.597209096E0,8.452646255E0,1.599601984E0
2.690029113E1,-6.705885530E-1,7.487142086E0,2.147558212E0
2.691695779E1,-2.560320199E-1,7.216155052E0,2.179861546E0
2.693362446E1,4.845465720E-1,6.582056999E0,1.674975872E0
2.695029113E1,7.160521746E-1,6.377470493E0,1.720439434E0
2.696695779E1,1.054038405E0,6.795018196E0,2.019542217E0
2.698362446E1,1.174875975E0,6.990631580E0,1.862812400E0
2.700029112E1,1.021137118E0,6.885347366E0,1.846660852E0
2.701695779E1,2.817548811E-1,6.471987247E0,1.850250125E0
2.703362446E1,-3.762713671E-1,6.431309223E0,1.749153376E0
2.705029112E1,-1.068993568E0,6.715456963E0,1.728814363E0
2.706695779E1,-1.777867198E0,7.534998417E0,1.641476393E0
2.708362445E1,-2.489133835E0,7.966903210E0,1.439282775E0
2.710029112E1,-2.795415163E0,7.879564762E0,1.255035520E0
2.711695779E1,-2.736790895E0,7.438089371E0,6.388836503E-1
2.713362445E1,-2.363510609E0,6.932007313E0,3.655036688E-1
2.715029112E1,-2.397608280E0,6.832107067E0,4.989035130E-1
2.716695778E1,-2.637488842E0,7.539186001E0,7.782655358E-1
2.718362445E1,-2.858824968E0,7.646862984E0,1.411765367E-1
2.720029112E1,-4.436891556E0,6.976274490E0,-2.500499785E-1
2.721695778E1,-4.838885784E0,6.971488953E0,1.962114573E-1
2.723362445E1,-4.752744198E0,7.215556622E0,1.393819153E-1
2.725029111E1,-4.089931965E0,7.289734364E0,2.739782035E-1
2.726695778E1,-3.859024763E0,7.204190731E0,2.374876440E-1
2.728362445E1,-3.437289715E0,6.994220734E0,-1.268195957E-1
2.730029111E1,-3.138785124E0,7.555337429E0,2.769692242E-1
2.731695778E1,-3.605385542E0,7.859225750E0,1.537388563E-1
2.733362444E1,-2.680559635E0,8.434102058E0,-2.638086975E-1
2.735029111E1,-3.724428415E0,8.614759445E0,4.151547253E-1
2.736695778E1,-3.578466177E0,8.819346428E0,7.716853172E-2
2.738362444E1,-2.998206854E0,9.160921097E0,1.537388563E-1
2.740029111E1,-3.276970625E0,8.472386360E0,4.049852192E-1
2.741695777E1,-2.547757864E0,7.375875950E0,4.115654826E-1
2.743362444E1,-2.682354212E0,6.619743824E0,-2.452643216E-2
2.745029111E1,-2.479562521E0,6.452844620E0,-8.494520187E-2
2.746695777E1,-1.901097536E0,6.659225464E0,-3.284149170E-1
2.748362444E1,-2.099701881E0,6.893123627E0,-2.057827413E-1
2.750029110E1,-1.972882271E0,8.033304214E0,-8.691928387E-1
2.751695777E1,-6.071787477E-1,1.262692547E1,1.521237016E0
2.753362444E1,4.899304509E-1,1.180379391E1,1.712064624E0
2.755029110E1,-1.998006850E-1,1.425284767E1,1.691127419E0
2.756695777E1,-1.928615093E0,1.719063568E1,1.661217093E0
2.758362443E1,-2.701496840E0,1.631964874E1,3.792623878E-1
2.760029110E1,-3.205185890E0,1.449272823E1,-1.182652593E0
2.761695777E1,-3.585046530E0,1.341775322E1,-7.459624410E-1
2.763362443E1,-3.517449379E0,1.103210926E1,1.250249892E-1
2.765029110E1,-2.246262312E0,1.105603695E1,5.611169338E-1
2.766695776E1,-7.136593461E-1,1.530269909E1,1.892124534E0
2.768362443E1,3.302095234E-1,1.819322968E1,7.531409264E-1
2.770029110E1,-4.755735099E-1,1.602413559E1,-7.956135273E-2
2.771695776E1,-3.571287692E-1,1.519741440E1,-1.836491376E-1
2.773362443E1,6.873382926E-1,1.412184143E1,7.417750359E-2
2.775029109E1,1.322632670E0,1.235773277E1,6.436693072E-1
2.776695776E1,1.304088354E0,9.830911636E0,8.500502706E-1
2.778362443E1,7.417750359E-1,9.523433685E0,9.266205430E-1
2.780029109E1,7.788637877E-1,1.003489971E1,9.170492887E-1
2.781695776E1,9.906286001E-1,1.147657585E1,3.116651475E-1
2.783362442E1,1.204187989E0,1.171525955E1,-4.965107143E-2
2.785029109E1,7.716853023E-1,1.010309505E1,-1.866401732E-1
2.786695776E1,5.533402562E-1,8.316853523E0,1.130608693E-1
2.788362442E1,7.076773047E-1,7.820940971E0,2.673979402E-1
2.790029109E1,1.195813060E0,7.684549809E0,6.723831892E-1
2.791695775E1,1.973480463E0,7.768897057E0,8.177471161E-1
2.793362442E1,2.111665964E0,7.999206066E0,9.290133715E-1
2.795029109E1,2.144567251E0,8.624331474E0,7.477570772E-1
2.796695775E1,1.590628862E0,9.067003250E0,6.903293133E-1
2.798362442E1,1.303490162E0,9.079565048E0,4.869394004E-1
2.800029108E1,5.730810165E-1,9.129815102E0,3.996013701E-1
2.801695775E1,3.990031779E-1,9.235098839E0,5.605186820E-1
2.803362442E1,6.131607890E-1,9.346364975E0,8.153542876E-1
2.805029108E1,1.319043517E0,9.825528145E0,7.304090858E-1
2.806695775E1,1.428515077E0,1.034716320E1,7.405785918E-1
2.808362441E1,1.134197950E0,1.116730309E1,5.132604837E-1
2.810029108E1,3.314059377E-1,1.130788136E1,4.348955154E-1
2.811695775E1,-3.445664644E-1,1.046022415E1,4.773681164E-1
2.813362441E1,-4.241278172E-1,9.475577354E0,5.294120312E-1
2.815029108E1,-4.863412082E-1,9.342177391E0,5.766702294E-1
2.816695774E1,-3.218346536E-1,9.355937004E0,3.918247223E-1
2.818362441E1,3.068794906E-1,9.578469276E0,4.683950245E-1
2.820029108E1,8.877372146E-1,9.723833084E0,5.641079545E-1
2.821695774E1,1.160519004E0,1.001156998E1,6.909275651E-1
2.823362441E1,1.088734269E0,1.007318497E1,5.850451589E-1
2.825029107E1,8.045865893E-1,9.981659889E0,6.831508875E-1
2.826695774E1,-3.589234129E-2,9.573084831E0,7.094719410E-1
2.828362441E1,-1.393819153E-1,9.147162437E0,5.748756528E-1
2.830029107E1,3.523431420E-1,9.503094673E0,9.421738982E-1
2.831695774E1,4.247260094E-1,9.684949875E0,8.374879360E-1
2.833362440E1,3.816552162E-1,9.856635094E0,7.369893789E-1
2.835029107E1,-1.226321608E-1,1.011685371E1,5.461617708E-1
2.836695774E1,-6.346961856E-1,9.925428391E0,8.955138922E-1
2.838362440E1,-7.716853023E-1,9.604191780E0,7.411768436E-1
2.840029107E1,-1.722832322E-1,9.577870369E0,9.373882413E-1
2.841695773E1,1.363908947E-1,9.574281693E0,8.350951076E-1
2.843362440E1,3.637090325E-1,9.502496719E0,6.795616150E-1
2.845029107E1,3.792623878E-1,9.757332802E0,1.080957651E0
2.846695773E1,2.015953064E-1,9.923633575E0,1.021735311E0
2.848362440E1,-2.608176768E-1,9.204590797E0,6.837490797E-1
2.850029106E1,-6.837490797E-1,9.141180992E0,7.040880919E-1
2.851695773E1,-9.320043921E-1,9.625727654E0,1.619342685E0
2.853362440E1,-7.836494446E-1,1.002532864E1,8.847461939E-1
2.855029106E1,-7.094719410E-1,1.009412193E1,-1.663011760E-1
2.856695773E1,-4.313062727E-1,1.093938732E1,9.972088337E-1
2.858362439E1,-9.212366939E-1,1.087777138E1,2.572284341E-1
2.860029106E1,-1.266999602E0,1.043809032E1,4.025924206E-1
2.861695773E1,-1.658226132E0,9.611370087E0,9.391828775E-1
2.863362439E1,-1.674975872E0,9.178269386E0,1.417149186E0
2.865029106E1,-1.155135155E0,9.122636795E0,1.406979680E0
2.866695772E1,-4.905286431E-1,9.186046600E0,1.255035520E0
2.868362439E1,-3.218346536E-1,9.201001167E0,1.180259824E0
2.870029106E1,-3.882354796E-1,9.319445610E0,9.930213690E-1
2.871695772E1,-6.903293133E-1,9.279964447E0,8.997012973E-1
2.873362439E1,-9.278169870E-1,9.399605751E0,1.112662554E0
2.875029105E1,-1.241874933E0,9.690333366E0,1.210170031E0
2.876695772E1,-1.270588875E0,9.341579437E0,1.277169108E0
2.878362439E1,-1.259821177E0,9.055039406E0,1.305882931E0
2.880029105E1,-1.104885817E0,9.638887405E0,1.536192179E0
2.881695772E1,-8.297112584E-1,1.007378292E1,1.271187067E0
2.883362438E1,-8.452646136E-1,1.017906761E1,1.342373490E0
2.885029105E1,-8.781659007E-1,9.859027863E0,1.423729420E0
2.886695772E1,-7.561319470E-1,9.577272415E0,1.200000525E0
2.888362438E1,-5.766702294E-1,8.880363464E0,1.249651670E0
2.890029105E1,-3.559323549E-1,9.005388260E0,1.337587833E0
2.891695771E1,9.391828626E-2,1.042253685E1,1.804786444E0
2.893362438E1,6.484549642E-1,1.091665554E1,2.009970903E0
2.895029105E1,9.601200819E-1,1.135274696E1,2.021935225E0
2.896695771E1,1.255633712E0,1.143589783E1,2.354537487E0
2.898362438E1,1.308275819E0,1.088255692E1,2.622533560E0
2.900029104E1,1.495514154E0,1.091186905E1,2.619542599E0
2.901695771E1,1.621137381E0,1.107159042E1,3.193820000E0
2.903362438E1,8.614161611E-1,1.012223816E1,2.843271494E0
2.905029104E1,1.114457130E0,1.042911720E1,2.998206854E0
2.906695771E1,6.089733839E-1,1.010788059E1,3.180659533E0
2.908362437E1,-4.785645381E-2,9.360722542E0,3.189632654E0
2.910029104E1,3.870390654E-1,9.031708717E0,3.006581545E0
2.911695771E1,1.154536903E-1,8.950951576E0,3.410968781E0
2.913362437E1,5.976074338E-1,8.789435387E0,3.247658491E0
2.915029104E1,6.675975323E-1,8.914461136E0,3.510869026E0
2.916695770E1,9.320043921E-1,8.662615776E0,3.618546009E0
2.918362437E1,1.316650629E0,8.544769287E0,3.683750391E0
2.920029104E1,1.326820135E0,8.362915039E0,3.703491211E0
2.921695770E1,1.394417405E0,8.282156944E0,3.699303865E0
2.923362437E1,1.032503009E0,8.137989998E0,3.906282902E0
2.925029103E1,8.231309652E-1,7.659425259E0,3.765704632E0
2.926695770E1,7.304090858E-1,7.697710514E0,3.985246181E0
2.928362437E1,9.284151793E-1,7.750352383E0,3.829114437E0
2.930029103E1,9.990034699E-1,7.894520283E0,3.967898130E0
2.931695770E1,1.018744230E0,7.646264553E0,3.978067636E0
2.933362436E1,1.022931695E0,7.718049526E0,4.068994999E0
2.935029103E1,1.068395257E0,7.211369038E0,3.973880291E0
2.936695770E1,1.219143152E0,6.934400082E0,3.798007727E0
2.938362436E1,1.340578914E0,6.686144829E0,3.703491211E0
2.940029103E1,1.400399446E0,6.576074600E0,3.498904943E0
2.941695769E1,1.509871125E0,6.552744865E0,3.671786308E0
2.943362436E1,1.699502230E0,6.440282345E0,4.113262177E0
2.945029103E1,1.651047587E0,6.530611038E0,4.055236340E0
2.946695769E1,1.530210137E0,7.036095142E0,3.982254982E0
2.948362436E1,1.149153113E0,7.255038261E0,4.055834293E0
2.950029102E1,6.705885530E-1,7.913064480E0,4.137190342E0
2.951695769E1,8.901300430E-1,8.659027100E0,4.138985157E0
2.953362436E1,1.685743570E0,8.715258598E0,4.461417675E0
2.955029102E1,2.473580360E0,8.622536659E0,4.663611412E0
2.956695769E1,2.837289333E0,8.930013657E0,4.719244480E0
2.958362435E1,3.500699520E0,9.745368004E0,5.202594757E0
2.960029102E1,3.387638569E0,1.018983555E1,5.321039200E0
2.961695769E1,3.001796007E0,1.041835022E1,5.408377171E0
2.963362435E1,2.610569477E0,1.108116150E1,5.409573555E0
2.965029102E1,2.558525562E0,1.178405285E1,5.757729530E0
2.966695768E1,2.247458696E0,1.305404377E1,5.745765209E0
2.968362435E1,2.436491728E0,1.465185165E1,6.229115486E0
2.970029102E1,3.112463951E0,1.547558022E1,6.211169243E0
2.971695768E1,3.356531858E0,1.553480244E1,6.399604321E0
2.973362435E1,2.777468920E0,1.532782364E1,6.714858532E0
2.975029101E1,2.365903378E0,1.467697620E1,6.749554634E0
2.976695768E1,1.159920812E0,1.330289745E1,7.088139057E0
2.978362435E1,-8.255238086E-2,1.190728378E1,6.538387775E0
2.980029101E1,1.064806059E-1,1.256112289E1,6.028118610E0
2.981695768E1,-2.644068897E-1,1.117029476E1,4.630111694E0
2.983362434E1,-5.246263742E-1,1.051346493E1,4.236492634E0
2.985029101E1,-8.273184299E-1,8.945567131E0,2.733799934E0
2.986695768E1,-8.889335990E-1,7.537989616E0,1.739582062E0
2.988362434E1,-8.458628058E-1,7.164111137E0,1.238285661E0
2.990029101E1,-1.372882009E0,6.923034191E0,1.033101201E0
2.991695767E1,-1.308874011E0,7.330412388E0,1.382453322E0
2.993362434E1,-1.931007862E0,7.500900745E0,1.534995675E0
2.995029101E1,-2.141576290E0,7.323233604E0,1.523629785E0
2.996695767E1,-2.181656122E0,7.094718933E0,1.833500385E0
2.998362434E1,-1.825125456E0,6.053243160E0,1.426122308E0
3.000029100E1,-1.455434322E0,5.763711452E0,1.630110383E0
3.001695767E1,-1.043270707E0,6.113661766E0,1.691127419E0
3.003362434E1,-7.525427341E-1,6.940980434E0,1.707278967E0
3.005029100E1,-4.390829504E-1,8.027321815E0,1.867598057E0
3.006695767E1,-3.337987661E-1,9.302098274E0,1.471585870E0
3.008362433E1,-1.112662554E-1,1.043091202E1,1.578066587E0
3.010029100E1,-3.661018610E-1,1.015753174E1,1.609771490E0
3.011695767E1,-8.069794178E-1,9.229715347E0,1.777867198E0
3.013362433E1,-1.216152072E0,9.042476654E0,1.946561217E0
3.015029100E1,-1.927418590E0,9.378668785E0,1.701296926E0
3.016695766E1,-2.855235577E0,9.676574707E0,1.593021631E0
3.018362433E1,-2.937189817E0,9.790832520E0,1.573280931E0
3.020029100E1,-2.649452925E0,9.892526627E0,1.652244091E0
3.021695766E1,-1.817947030E0,1.044407272E1,1.463211060E0
3.023362433E1,-1.487737536E0,1.019282627E1,1.824527264E0
3.025029099E1,-5.306084156E-1,1.030827999E1,1.001396298E0
3.026695766E1,-4.253242314E-1,1.009890842E1,1.212562919E0
3.028362433E1,-4.624129832E-1,9.348757744E0,1.226919770E0
3.030029099E1,-2.829512656E-1,8.952746391E0,1.165902853E0
3.031695766E1,-1.148554832E-1,8.843274117E0,1.268195987E0
3.033362432E1,1.375873014E-2,8.682356834E0,1.517647743E0
3.035029099E1,3.678964674E-1,8.810971260E0,1.033101201E0
3.036695766E1,4.336991012E-1,8.673383713E0,1.292124271E0
3.038362432E1,5.916253924E-1,8.492725372E0,1.441675663E0
3.040029099E1,7.100701332E-1,8.348558426E0,1.083948612E0
3.041695765E1,2.470589429E-1,7.880163193E0,1.438684583E0
3.043362432E1,2.931207716E-1,7.549953461E0,1.185643673E0
3.045029099E1,9.332008660E-2,7.409973621E0,9.499505758E-1
3.046695765E1,-4.265206456E-1,7.341778278E0,1.026520967E0
3.048362432E1,-8.291130662E-1,7.793423176E0,6.885347366E-1
3.050029098E1,-6.508477330E-1,8.404789925E0,4.127618968E-1
3.051695765E1,-1.162911773E0,8.780462265E0,5.425725579E-1
3.053362432E1,-1.289133191E0,9.067003250E0,5.940182209E-1
3.055029098E1,-1.770688772E0,9.199805260E0,6.610172391E-1
3.056695765E1,-2.033301115E0,9.696315765E0,9.266205430E-1
3.058362431E1,-1.707877159E0,1.007019424E1,1.005583763E0
3.060029098E1,-1.740778446E0,9.559326172E0,1.077368379E0
3.061695765E1,-1.700100541E0,9.081359863E0,9.439685345E-1
3.063362431E1,-1.920240164E0,9.215357780E0,1.429113269E0
3.065029098E1,-1.686939955E0,9.367900848E0,1.034895778E0
3.066695764E1,-1.642672777E0,1.001396275E1,1.307079315E0
3.068362431E1,-1.982453585E0,9.768698692E0,1.161117196E0
3.070029098E1,-2.286940336E0,9.606584549E0,1.454836130E0
3.071695764E1,-2.364108801E0,9.534799576E0,1.511665702E0
3.073362431E1,-2.857030153E0,9.295517921E0,1.947159410E0
3.075029097E1,-3.013760090E0,9.900901794E0,6.281159073E-2
3.076695764E1,-3.527020693E0,1.112004471E1,8.321040869E-1
3.078362431E1,-3.732205153E0,1.098006535E1,6.155536175E-1
3.080029097E1,-3.780659676E0,1.053619671E1,8.584251404E-1
3.081695764E1,-3.400799274E0,9.620942116E0,1.220339537E0
3.083362430E1,-2.488535643E0,9.743574142E0,1.323829174E0
3.085029097E1,-1.563111424E0,9.700503349E0,1.752144337E0
3.086695764E1,-8.518448472E-1,9.468997002E0,1.935195327E0
3.088362430E1,-1.142572835E-1,9.341579437E0,1.726421595E0
3.090029097E1,1.411765367E-1,9.332606316E0,1.633101463E0
3.091695763E1,2.847459018E-1,9.271589279E0,1.753939033E0
3.093362430E1,-2.925225794E-1,9.031110764E0,1.868794441E0
3.095029097E1,-8.009973764E-1,8.126624107E0,2.031506538E0
3.096695763E1,-9.756734371E-1,7.900502205E0,1.648056626E0
3.098362430E1,-8.608179688E-1,7.710272789E0,1.830509305E0
3.100029096E1,-4.313062727E-1,7.071389198E0,1.843669891E0
3.101695763E1,3.409772366E-2,7.173682213E0,1.948355794E0
3.103362430E1,-2.751746029E-2,7.482954502E0,1.680359721E0
3.105029096E1,-1.429711580E-1,7.931608677E0,1.482951880E0
3.106695763E1,-4.163511395E-1,8.111668587E0,1.394417405E0
3.108362429E1,-1.041476011E0,7.999804497E0,1.399203062E0
3.110029096E1,-1.743171334E0,7.759325504E0,1.435693622E0
3.111695763E1,-2.334198475E0,7.867002487E0,1.344766378E0
3.113362429E1,-2.231905222E0,7.938189030E0,1.149751306E0
3.115029096E1,-2.216351986E0,8.128418922E0,8.440681696E-1
3.116695762E1,-2.094916344E0,8.801400185E0,4.432703853E-1
3.118362429E1,-2.216351986E0,8.987442017E0,5.425725579E-1
3.120029096E1,-2.646461725E0,8.651249886E0,3.242274821E-1
3.121695762E1,-2.462214470E0,7.839485168E0,3.595215976E-1
3.123362429E1,-2.367099762E0,7.334599495E0,7.567301393E-1
3.125029095E1,-2.358126640E0,7.082156658E0,9.481559992E-1
3.126695762E1,-2.419741869E0,6.995417118E0,8.620143533E-1
3.128362429E1,-2.571087837E0,7.609774113E0,2.392822653E-1
3.130029095E1,-2.809173822E0,8.950951576E0,5.024927482E-2
3.131695762E1,-4.258625984E0,8.806783676E0,-3.254238665E-1
3.133362428E1,-4.554139614E0,8.528019905E0,-5.760720372E-1
3.135029095E1,-4.164109707E0,7.536194801E0,-2.141576260E-1
3.136695762E1,-4.178466320E0,7.211369038E0,-1.328016520E-1
3.138362428E1,-4.898705959E0,7.371089935E0,-3.254238665E-1
3.140029095E1,-4.761118889E0,8.319844246E0,-1.132403374E0
3.141695761E1,-4.484747887E0,8.668598175E0,-1.584048629E0
3.143362428E1,-3.334996462E0,9.012566566E0,-1.138983607E0
3.145029095E1,-2.807379246E0,8.909674644E0,-9.098708034E-1
3.146695761E1,-2.383849621E0,8.039883614E0,6.400800496E-2
3.148362428E1,-2.563311338E0,6.926024914E0,5.324030295E-2
3.150029094E1,-2.873780012E0,6.174678802E0,5.024927482E-2
3.151695761E1,-2.623131752E0,6.113063812E0,-5.742774159E-2
3.153362428E1,-1.740778446E0,6.035895348E0,3.278166950E-1
3.155029094E1,-7.962117195E-1,6.365506649E0,-7.585247755E-1
3.156695761E1,-4.612165689E-1,9.823135376E0,1.896311939E-1
3.158362427E1,2.685943544E-1,9.840482712E0,3.774677813E-1
3.160029094E1,-7.417750359E-2,1.008335495E1,4.606183469E-1
3.161695761E1,-2.694318295E0,1.423071480E1,1.405783296E-1
3.163362427E1,-4.089334011E0,1.686281967E1,-1.058823988E-1
3.165029094E1,-4.590630054E0,1.803470421E1,-2.413759947E0
3.166695760E1,-5.217549801E0,1.543550110E1,-1.835294962E0
3.168362427E1,-4.351347923E0,1.425883007E1,-1.517049551E0
3.170029094E1,-3.856631994E0,1.089631653E1,-1.310070455E-1
3.171695760E1,-1.849651933E0,1.125464153E1,9.182456732E-1
3.173362427E1,-2.650051117E-1,1.598166275E1,1.451246977E0
3.175029093E1,5.593222976E-1,1.841217232E1,2.105683982E-1
3.176695760E1,1.198804140E0,1.706680679E1,8.255238086E-2
3.178362427E1,1.320239902E0,1.694238091E1,-7.417750359E-2
3.180029093E1,6.652047038E-1,1.423011589E1,1.086939692E0
3.181695760E1,1.051047325E0,1.000498962E1,1.874776483E0
3.183362426E1,1.287338614E0,7.016354084E0,2.269592285E0
3.185029093E1,8.548358679E-1,7.313064098E0,1.391426325E0
3.186695760E1,6.448656917E-1,8.500502586E0,7.345965505E-1
3.188362426E1,2.015953064E-1,1.081854916E1,-2.452643216E-2
3.190029093E1,-4.402793646E-1,1.143111229E1,-6.801598072E-1
3.191695759E1,-7.274180651E-1,1.055174923E1,-5.006981492E-1
3.193362426E1,8.434699476E-2,9.227920532E0,1.704886109E-1
3.195029093E1,5.587241054E-1,8.666803360E0,5.521438122E-1
3.196695759E1,1.343569875E0,7.823931694E0,7.932206988E-1
3.198362426E1,1.713859200E0,7.562515736E0,8.398807645E-1
3.200029092E1,1.607976794E0,7.987242222E0,6.759724021E-1
3.201695759E1,1.232901812E0,8.754739761E0,4.336991012E-1
3.203362426E1,9.918249846E-1,9.020941734E0,3.984049559E-1
3.205029092E1,6.263213158E-1,9.296713829E0,3.140579760E-1
3.206695759E1,2.787638307E-1,9.439684868E0,4.253242314E-1
3.208362425E1,1.519442350E-1,9.630513191E0,6.442674994E-1
3.210029092E1,4.247260094E-1,9.560523033E0,8.566305041E-1
3.211695759E1,3.655036688E-1,9.775876999E0,9.708877802E-1
3.213362425E1,4.372883439E-1,9.747760773E0,1.024128079E0
3.215029092E1,7.854440212E-1,9.952945709E0,7.022934556E-1
3.216695758E1,5.503492355E-1,1.046740246E1,4.612165689E-1
3.218362425E1,5.982056633E-2,1.068036366E1,3.134597540E-1
3.220029092E1,-3.050848842E-2,1.006421185E1,4.325026870E-1
3.221695758E1,3.230310604E-2,9.916455269E0,4.851447940E-1
3.223362425E1,4.360919297E-1,9.999007225E0,4.073780477E-1
3.225029091E1,4.725824594E-1,1.039143085E1,5.988038778E-1
3.226695758E1,4.175475538E-1,1.020120144E1,9.619147182E-1
3.228362425E1,1.968096644E-1,9.441479683E0,1.213161111E0
3.230029091E1,4.295116663E-1,9.078369141E0,1.009771109E0
3.231695758E1,5.018945336E-1,9.217152596E0,9.290133715E-1
3.233362424E1,1.962114573E-1,9.382257462E0,6.257231236E-1
3.235029091E1,8.015955985E-2,9.783055305E0,5.000999570E-1
3.236695758E1,4.187439568E-3,9.926026344E0,3.415754437E-1
3.238362424E1,-4.259224236E-1,1.044048309E1,4.528416991E-1
3.240029091E1,-4.594219327E-1,1.035972595E1,4.905286431E-1
3.241695757E1,-4.881358147E-1,1.032084274E1,4.187439680E-1
3.243362424E1,-1.567298770E-1,1.014556789E1,5.455635786E-1
3.245029091E1,-4.785645287E-3,1.021854877E1,8.386843204E-1
3.246695757E1,1.645065546E-1,9.875179291E0,8.207381964E-1
3.248362424E1,2.255235314E-1,9.856635094E0,9.984052777E-1
3.250029090E1,1.686939895E-1,9.879964828E0,9.403793216E-1
3.251695757E1,-2.494517565E-1,9.797411919E0,9.176474810E-1
3.253362424E1,-5.377869010E-1,9.801599503E0,9.104689956E-1
3.255029090E1,-7.298108935E-1,9.562317848E0,9.469595551E-1
3.256695757E1,-7.435696125E-1,9.451649666E0,8.895317912E-1
3.258362423E1,-8.338986635E-1,9.274580956E0,7.788637877E-1
3.260029090E1,-6.693921089E-1,9.615557671E0,1.196411371E0
3.261695757E1,-2.021935135E-1,9.626325607E0,1.119242787E0
3.263362423E1,-4.612165689E-1,9.324232101E0,1.116850019E0
3.265029090E1,-2.422732860E-1,9.345169067E0,1.390828133E0
3.266695756E1,-7.339983582E-1,9.487542152E0,1.582852125E0
3.268362423E1,-8.650053740E-1,9.339784622E0,1.796411633E0
3.270029090E1,-1.103689432E0,9.102297783E0,9.535398483E-1
3.271695756E1,-1.571486235E0,8.440681458E0,6.969096065E-1
3.273362423E1,-1.537986755E0,8.493324280E0,7.112665176E-1
3.275029089E1,-1.302891970E0,8.809176445E0,6.269195080E-1
3.276695756E1,-5.982056856E-1,9.403793335E0,6.951149702E-1
3.278362423E1,-3.547359705E-1,9.906884193E0,7.686942816E-1
3.280029089E1,-4.103690982E-1,1.074018478E1,1.537388563E0
3.281695756E1,-8.656035662E-1,1.194257736E1,1.576271892E0
3.283362422E1,-1.153938770E0,1.206580830E1,1.444666624E0
3.285029089E1,-1.648654819E0,1.081137085E1,1.168295622E0
3.286695756E1,-1.785643935E0,9.247661591E0,7.184450030E-1
3.288362422E1,-1.675574064E0,8.446065903E0,1.125823021E0
3.290029089E1,-1.562513232E0,8.385646820E0,1.480558991E0
3.291695755E1,-1.259222865E0,9.614959717E0,1.673779488E0
3.293362422E1,-9.936196208E-1,1.044287586E1,1.895713687E0
3.295029089E1,-5.970092416E-1,1.155254745E1,1.807777524E0
3.296695755E1,-4.247260094E-1,1.151067352E1,1.905285001E0
3.298362422E1,-9.152546525E-2,1.090947628E1,1.974676847E0
3.300029088E1,4.486542344E-1,1.033998489E1,2.629712105E0
3.301695755E1,6.574280262E-1,9.786046028E0,2.588435888E0
3.303362422E1,1.833500385E0,1.057567787E1,3.253042459E0
3.305029088E1,1.286740422E0,1.013898754E1,3.257827997E0
3.306695755E1,1.244866014E0,9.565308571E0,3.224328518E0
3.308362421E1,1.676770449E0,9.681958199E0,3.318845034E0
3.310029088E1,1.002592683E0,8.938388824E0,3.026322365E0
3.311695755E1,1.183848977E0,9.092127800E0,3.228515863E0
3.313362421E1,8.572286963E-1,8.694919586E0,3.269193888E0
3.315029088E1,1.714457393E0,9.109476089E0,3.692125320E0
3.316695754E1,1.421336651E0,8.807980537E0,3.784847260E0
3.318362421E1,1.712064624E0,9.153742790E0,4.021736622E0
3.320029088E1,2.216950178E0,9.035896301E0,4.016352654E0
3.321695754E1,1.405783296E0,8.665008545E0,3.947559118E0
3.323362421E1,1.522433400E0,8.364111900E0,3.924827337E0
3.325029087E1,1.095314622E0,7.551149845E0,4.045664787E0
3.326695754E1,1.299900889E0,7.016354084E0,3.884747505E0
3.328362421E1,1.319043517E0,7.001997471E0,3.904488325E0
3.330029087E1,1.162911773E0,7.112067223E0,4.208376884E0
3.331695754E1,1.102493048E0,7.470990658E0,4.490131855E0
3.333362420E1,1.330409408E0,7.404589653E0,4.238885403E0
3.335029087E1,1.705484390E0,7.310073376E0,4.289732933E0
3.336695754E1,1.820339799E0,7.277172089E0,4.343571186E0
3.338362420E1,1.854437590E0,7.057630539E0,4.396213531E0
3.340029087E1,1.398006678E0,7.175477028E0,4.258625984E0
3.341695753E1,1.044467092E0,6.934400082E0,4.025924206E0
3.343362420E1,1.295713425E0,6.600601196E0,3.966103554E0
3.345029087E1,1.325025558E0,6.662814617E0,3.875774384E0
3.346695753E1,6.065805554E-1,7.902296543E0,3.711267948E0
3.348362420E1,5.132604837E-1,9.221938133E0,4.135395527E0
3.350029086E1,9.403793216E-1,9.419346809E0,4.249054909E0
3.351695753E1,1.516451359E0,9.130413055E0,4.454837322E0
3.353362420E1,1.606182218E0,8.859425545E0,4.818546772E0
3.355029086E1,1.561316729E0,8.816953659E0,5.014159679E0
3.356695753E1,1.276570916E0,9.217152596E0,5.064409256E0
3.358362419E1,1.070788145E0,1.011087227E1,5.248656273E0
3.360029086E1,1.311864972E0,1.075753212E1,5.585446358E0
3.361695753E1,1.431506157E0,1.144726372E1,6.121438503E0
3.363362419E1,1.443470240E0,1.180140114E1,6.312266350E0
3.365029086E1,1.545165181E0,1.279621696E1,6.513861656E0
3.366695752E1,1.786840320E0,1.389631748E1,6.658627033E0
3.368362419E1,2.206780672E0,1.511067486E1,6.595217228E0
3.370029086E1,1.790429592E0,1.502333736E1,6.395416737E0
3.371695752E1,1.798804402E0,1.537687683E1,6.424130440E0
3.373362419E1,1.147358418E0,1.429771328E1,5.807380676E0
3.375029085E1,1.639083475E-1,1.262154102E1,5.412564754E0
3.376695752E1,-2.344966233E-1,1.051286602E1,5.366502762E0
3.378362419E1,-6.448656917E-1,8.821739197E0,4.207180500E0
3.380029085E1,-9.547362328E-1,8.014161110E0,2.780459881E0
3.381695752E1,-1.265803218E0,7.914859295E0,1.869990945E0
3.383362418E1,-1.836491346E0,8.005785942E0,8.997012973E-1
3.385029085E1,-2.000998020E0,8.836095810E0,7.740781307E-1
3.386695752E1,-2.411366940E0,9.035896301E0,9.140582681E-1
3.388362418E1,-2.483151674E0,9.288339615E0,7.555337548E-1
3.390029085E1,-2.831307411E0,8.656036377E0,6.233302951E-1
3.391695751E1,-2.726621389E0,8.494520187E0,8.015955687E-1
3.393362418E1,-2.528615236E0,8.318648338E0,7.746763229E-1
3.395029085E1,-1.853839397E0,8.937790871E0,1.023529887E0
3.396695751E1,-1.237089276E0,9.427721024E0,1.315454245E0
3.398362418E1,-9.320043921E-1,9.365508080E0,1.002592683E0
3.400029084E1,-5.623133183E-1,9.214759827E0,1.201795220E0
3.401695751E1,-2.883351147E-1,9.439684868E0,1.103689432E0
3.403362418E1,-2.452643216E-1,9.559326172E0,1.051645517E0
3.405029084E1,-5.700899959E-1,9.418747902E0,7.956135273E-1
3.406695751E1,-8.338986635E-1,9.250652313E0,8.075776696E-1
3.408362417E1,-1.107278705E0,8.986844063E0,7.579265833E-1
3.410029084E1,-1.275374413E0,8.848059654E0,8.183453679E-1
3.411695751E1,-1.133599758E0,8.580063820E0,5.473581553E-1
3.413362417E1,-1.372882009E0,8.130811691E0,6.317051649E-1
3.415029084E1,-1.238285661E0,8.149953842E0,5.754738450E-1
3.416695750E1,-1.185045362E0,8.159524918E0,5.090730190E-1
3.418362417E1,-1.144965649E0,8.178069115E0,2.608176768E-1
3.420029084E1,-1.236491084E0,8.420941353E0,2.123630047E-1
3.421695750E1,-1.104885817E0,8.563912392E0,-4.486542568E-2
3.423362417E1,-1.390229940E0,8.425128937E0,2.057827413E-1
3.425029083E1,-1.420140266E0,8.497511864E0,3.678964674E-1
3.426695750E1,-1.301097274E0,8.517251968E0,4.983053207E-1
3.428362417E1,-1.313659668E0,8.039285660E0,4.169493318E-1
3.430029083E1,-1.222732425E0,7.829914093E0,5.563312769E-1
3.431695750E1,-8.793623447E-1,8.385646820E0,7.740781307E-1
3.433362416E1,-7.447660565E-1,8.734400749E0,6.269195080E-1
3.435029083E1,-6.717849374E-1,8.839685440E0,5.036891699E-1
3.436695750E1,-9.601200819E-1,8.571090698E0,5.395814776E-1
3.438362416E1,-1.151545882E0,8.560322762E0,4.325026870E-1
3.440029083E1,-1.276570916E0,8.894122124E0,2.691925466E-1
3.441695749E1,-1.310668588E0,9.175876617E0,2.638086975E-1
3.443362416E1,-1.373480201E0,9.195018768E0,2.392822653E-1
3.445029083E1,-1.382453322E0,8.989236832E0,2.871387303E-1
3.446695749E1,-1.475773335E0,9.128618240E0,5.108676553E-1
3.448362416E1,-1.583450437E0,9.405587196E0,6.340979934E-1
3.450029082E1,-1.512263894E0,9.224929810E0,8.548358679E-1
3.451695749E1,-1.506281853E0,9.081359863E0,7.686942816E-1
3.453362416E1,-1.307079315E0,8.833105087E0,5.647061467E-1
3.455029082E1,-1.357328653E0,9.220144272E0,7.172485590E-1
3.456695749E1,-1.673779488E0,8.994620323E0,6.574280262E-1
3.458362415E1,-1.683350682E0,8.569295883E0,7.818548083E-1
3.460029082E1,-1.871187329E0,8.793622971E0,7.992027402E-1
